{
    "Study": {
        "StudyName": "LZZT",
        "StudyDescription": "Safety and Efficacy of the Xanomeline Transdermal Therapeutic System (TTS) in Patients with Mild to Moderate Alzheimer's Disease",
        "ProtocolName": "LZZT",
        "Language": "en"
    },
    "Standards": [
        {
            "Name": "SDTMIG",
            "Type": "IG",
            "Version": "3.4"
        },
        {
            "Name": "CDISC/NCI",
            "Type": "CT",
            "Publishing Set": "SDTM",
            "Version": "2025-03-28"
        }
    ],
    "Datasets": {
        "DM": {
            "Description": "Demographics",
            "Class": "Special-Purpose",
            "Structure": "One record per subject",
            "Variables": [
                {
                    "Variable": "STUDYID",
                    "Label": "Study Identifier",
                    "Data Type": "Char",
                    "Role": "Identifier"
                },
                {
                    "Variable": "DOMAIN",
                    "Label": "Domain Abbreviation",
                    "Data Type": "Char",
                    "Role": "Identifier"
                },
                {
                    "Variable": "USUBJID",
                    "Label": "Unique Subject Identifier",
                    "Data Type": "Char",
                    "Role": "Identifier"
                },
                {
                    "Variable": "SUBJID",
                    "Label": "Subject Identifier for the Study",
                    "Data Type": "Char",
                    "Role": "Topic"
                },
                {
                    "Variable": "RFSTDTC",
                    "Label": "Subject Reference Start Date/Time",
                    "Data Type": "Char",
                    "Role": "Record Qualifier"
                },
                {
                    "Variable": "RFENDTC",
                    "Label": "Subject Reference End Date/Time",
                    "Data Type": "Char",
                    "Role": "Record Qualifier"
                },
                {
                    "Variable": "RFXSTDTC",
                    "Label": "Date/Time of First Study Treatment",
                    "Data Type": "Char",
                    "Role": "Record Qualifier"
                },
                {
                    "Variable": "RFXENDTC",
                    "Label": "Date/Time of Last Study Treatment",
                    "Data Type": "Char",
                    "Role": "Record Qualifier"
                },
                {
                    "Variable": "RFICDTC",
                    "Label": "Date/Time of Informed Consent",
                    "Data Type": "Char",
                    "Role": "Record Qualifier"
                },
                {
                    "Variable": "RFPENDTC",
                    "Label": "Date/Time of End of Participation",
                    "Data Type": "Char",
                    "Role": "Record Qualifier"
                },
                {
                    "Variable": "DTHDTC",
                    "Label": "Date/Time of Death",
                    "Data Type": "Char",
                    "Role": "Record Qualifier"
                },
                {
                    "Variable": "DTHFL",
                    "Label": "Subject Death Flag",
                    "Data Type": "Char",
                    "Role": "Record Qualifier",
                    "CodeList": [
                        "NY"
                    ]
                },
                {
                    "Variable": "SITEID",
                    "Label": "Study Site Identifier",
                    "Data Type": "Char",
                    "Role": "Record Qualifier"
                },
                {
                    "Variable": "AGE",
                    "Label": "Age",
                    "Data Type": "Num",
                    "Role": "Record Qualifier"
                },
                {
                    "Variable": "AGEU",
                    "Label": "Age Units",
                    "Data Type": "Char",
                    "Role": "Variable Qualifier",
                    "CodeList": [
                        "AGEU"
                    ]
                },
                {
                    "Variable": "SEX",
                    "Label": "Sex",
                    "Data Type": "Char",
                    "Role": "Record Qualifier",
                    "CodeList": [
                        "SEX"
                    ]
                },
                {
                    "Variable": "RACE",
                    "Label": "Race",
                    "Data Type": "Char",
                    "Role": "Record Qualifier",
                    "CodeList": [
                        "RACE"
                    ]
                },
                {
                    "Variable": "ARMCD",
                    "Label": "Planned Arm Code",
                    "Data Type": "Char",
                    "Role": "Record Qualifier"
                },
                {
                    "Variable": "ARM",
                    "Label": "Description of Planned Arm",
                    "Data Type": "Char",
                    "Role": "Synonym Qualifier"
                },
                {
                    "Variable": "ACTARMCD",
                    "Label": "Actual Arm Code",
                    "Data Type": "Char",
                    "Role": "Record Qualifier"
                },
                {
                    "Variable": "ACTARM",
                    "Label": "Description of Actual Arm",
                    "Data Type": "Char",
                    "Role": "Synonym Qualifier"
                },
                {
                    "Variable": "ARMNRS",
                    "Label": "Reason Arm and/or Actual Arm is Null",
                    "Data Type": "Char",
                    "Role": "Record Qualifier",
                    "CodeList": [
                        "ARMNULRS"
                    ]
                },
                {
                    "Variable": "ACTARMUD",
                    "Label": "Description of Unplanned Actual Arm",
                    "Data Type": "Char",
                    "Role": "Record Qualifier"
                },
                {
                    "Variable": "COUNTRY",
                    "Label": "Country",
                    "Data Type": "Char",
                    "Role": "Record Qualifier"
                },
                {
                    "Variable": "DMDTC",
                    "Label": "Date/Time of Collection",
                    "Data Type": "Char",
                    "Role": "Timing"
                }
            ]
        },
        "VS": {
            "Description": "Vital Signs",
            "Class": "Findings",
            "Structure": "One record per vital sign measurement per time point per visit per subject",
            "Variables": [
                {
                    "Variable": "STUDYID",
                    "Label": "Study Identifier",
                    "Data Type": "Char",
                    "Role": "Identifier"
                },
                {
                    "Variable": "DOMAIN",
                    "Label": "Domain Abbreviation",
                    "Data Type": "Char",
                    "Role": "Identifier"
                },
                {
                    "Variable": "USUBJID",
                    "Label": "Unique Subject Identifier",
                    "Data Type": "Char",
                    "Role": "Identifier"
                },
                {
                    "Variable": "VSSEQ",
                    "Label": "Sequence Number",
                    "Data Type": "Num",
                    "Role": "Identifier"
                },
                {
                    "Variable": "VSTESTCD",
                    "Label": "Vital Signs Test Short Name",
                    "Data Type": "Char",
                    "Role": "Topic",
                    "CodeList": [
                        "VSTESTCD"
                    ]
                },
                {
                    "Variable": "VSTEST",
                    "Label": "Vital Signs Test Name",
                    "Data Type": "Char",
                    "Role": "Synonym Qualifier",
                    "CodeList": [
                        "VSTEST"
                    ]
                },
                {
                    "Variable": "VSPOS",
                    "Label": "Vital Signs Position of Subject",
                    "Data Type": "Char",
                    "Role": "Record Qualifier",
                    "CodeList": [
                        "POSITION"
                    ]
                },
                {
                    "Variable": "VSORRES",
                    "Label": "Result or Finding in Original Units",
                    "Data Type": "Char",
                    "Role": "Result Qualifier",
                    "VLM": [
                        {
                            "role": "Qualifier",
                            "dataType": "float",
                            "length": 8,
                            "format": "8.3",
                            "significantDigits": 3,
                            "originType": "Collected",
                            "originSource": "Investigator",
                            "WhereClause": [
                                {
                                    "Clause": [
                                        {
                                            "Dataset": "VS",
                                            "Variable": "VSTESTCD",
                                            "Codelist Concept ID": "C66741",
                                            "Comparator": "EQ",
                                            "Values": [
                                                "TEMP"
                                            ]
                                        }
                                    ]
                                },
                                {
                                    "Clause": [
                                        {
                                            "Dataset": "VS",
                                            "Variable": "VSLOC",
                                            "Codelist Concept ID": "C74456",
                                            "Comparator": "IN",
                                            "Values": [
                                                "AXILLA",
                                                "EAR",
                                                "FOREHEAD",
                                                "ORAL CAVITY",
                                                "RECTUM"
                                            ]
                                        }
                                    ]
                                }
                            ]
                        },
                        {
                            "role": "Qualifier",
                            "dataType": "float",
                            "length": 8,
                            "format": "8.3",
                            "significantDigits": 3,
                            "originType": "Collected",
                            "originSource": "Investigator",
                            "WhereClause": [
                                {
                                    "Clause": [
                                        {
                                            "Dataset": "VS",
                                            "Variable": "VSTESTCD",
                                            "Codelist Concept ID": "C66741",
                                            "Comparator": "EQ",
                                            "Values": [
                                                "WEIGHT"
                                            ]
                                        }
                                    ]
                                }
                            ]
                        },
                        {
                            "role": "Qualifier",
                            "dataType": "float",
                            "length": 8,
                            "format": "8.3",
                            "significantDigits": 3,
                            "originType": "Collected",
                            "originSource": "Investigator",
                            "WhereClause": [
                                {
                                    "Clause": [
                                        {
                                            "Dataset": "VS",
                                            "Variable": "VSTESTCD",
                                            "Codelist Concept ID": "C66741",
                                            "Comparator": "EQ",
                                            "Values": [
                                                "HEIGHT"
                                            ]
                                        }
                                    ]
                                }
                            ]
                        },
                        {
                            "role": "Qualifier",
                            "dataType": "integer",
                            "length": 3,
                            "originType": "Collected",
                            "originSource": "Investigator",
                            "WhereClause": [
                                {
                                    "Clause": [
                                        {
                                            "Dataset": "VS",
                                            "Variable": "VSTESTCD",
                                            "Codelist Concept ID": "C66741",
                                            "Comparator": "EQ",
                                            "Values": [
                                                "SYSBP"
                                            ]
                                        }
                                    ]
                                },
                                {
                                    "Clause": [
                                        {
                                            "Dataset": "VS",
                                            "Variable": "VSPOS",
                                            "Codelist Concept ID": "C71148",
                                            "Comparator": "IN",
                                            "Values": [
                                                "PRONE",
                                                "SEMI-RECUMBENT",
                                                "SITTING",
                                                "STANDING",
                                                "SUPINE"
                                            ]
                                        }
                                    ]
                                },
                                {
                                    "Clause": [
                                        {
                                            "Dataset": "VS",
                                            "Variable": "VSLOC",
                                            "Codelist Concept ID": "C74456",
                                            "Comparator": "IN",
                                            "Values": [
                                                "BRACHIAL ARTERY",
                                                "CAROTID ARTERY",
                                                "DORSALIS PEDIS ARTERY",
                                                "FEMORAL ARTERY",
                                                "FINGER",
                                                "RADIAL ARTERY"
                                            ]
                                        }
                                    ]
                                },
                                {
                                    "Clause": [
                                        {
                                            "Dataset": "VS",
                                            "Variable": "VSLAT",
                                            "Codelist Concept ID": "C99073",
                                            "Comparator": "IN",
                                            "Values": [
                                                "LEFT",
                                                "RIGHT"
                                            ]
                                        }
                                    ]
                                }
                            ]
                        },
                        {
                            "role": "Qualifier",
                            "dataType": "integer",
                            "length": 3,
                            "originType": "Collected",
                            "originSource": "Investigator",
                            "WhereClause": [
                                {
                                    "Clause": [
                                        {
                                            "Dataset": "VS",
                                            "Variable": "VSTESTCD",
                                            "Codelist Concept ID": "C66741",
                                            "Comparator": "EQ",
                                            "Values": [
                                                "DIABP"
                                            ]
                                        }
                                    ]
                                },
                                {
                                    "Clause": [
                                        {
                                            "Dataset": "VS",
                                            "Variable": "VSPOS",
                                            "Codelist Concept ID": "C71148",
                                            "Comparator": "IN",
                                            "Values": [
                                                "PRONE",
                                                "SEMI-RECUMBENT",
                                                "SITTING",
                                                "STANDING",
                                                "SUPINE"
                                            ]
                                        }
                                    ]
                                },
                                {
                                    "Clause": [
                                        {
                                            "Dataset": "VS",
                                            "Variable": "VSLOC",
                                            "Codelist Concept ID": "C74456",
                                            "Comparator": "IN",
                                            "Values": [
                                                "BRACHIAL ARTERY",
                                                "CAROTID ARTERY",
                                                "DORSALIS PEDIS ARTERY",
                                                "FEMORAL ARTERY",
                                                "FINGER",
                                                "RADIAL ARTERY"
                                            ]
                                        }
                                    ]
                                },
                                {
                                    "Clause": [
                                        {
                                            "Dataset": "VS",
                                            "Variable": "VSLAT",
                                            "Codelist Concept ID": "C99073",
                                            "Comparator": "IN",
                                            "Values": [
                                                "LEFT",
                                                "RIGHT"
                                            ]
                                        }
                                    ]
                                }
                            ]
                        },
                        {
                            "role": "Qualifier",
                            "dataType": "float",
                            "length": 8,
                            "format": "8.3",
                            "significantDigits": 3,
                            "originType": "Collected",
                            "originSource": "Investigator",
                            "WhereClause": [
                                {
                                    "Clause": [
                                        {
                                            "Dataset": "VS",
                                            "Variable": "VSTESTCD",
                                            "Codelist Concept ID": "C66741",
                                            "Comparator": "EQ",
                                            "Values": [
                                                "TEMP"
                                            ]
                                        }
                                    ]
                                },
                                {
                                    "Clause": [
                                        {
                                            "Dataset": "VS",
                                            "Variable": "VSLOC",
                                            "Codelist Concept ID": "C74456",
                                            "Comparator": "IN",
                                            "Values": [
                                                "AXILLA",
                                                "EAR",
                                                "FOREHEAD",
                                                "ORAL CAVITY",
                                                "RECTUM"
                                            ]
                                        }
                                    ]
                                }
                            ]
                        },
                        {
                            "role": "Qualifier",
                            "dataType": "float",
                            "length": 8,
                            "format": "8.3",
                            "significantDigits": 3,
                            "originType": "Collected",
                            "originSource": "Investigator",
                            "WhereClause": [
                                {
                                    "Clause": [
                                        {
                                            "Dataset": "VS",
                                            "Variable": "VSTESTCD",
                                            "Codelist Concept ID": "C66741",
                                            "Comparator": "EQ",
                                            "Values": [
                                                "WEIGHT"
                                            ]
                                        }
                                    ]
                                }
                            ]
                        },
                        {
                            "role": "Qualifier",
                            "dataType": "float",
                            "length": 8,
                            "format": "8.3",
                            "significantDigits": 3,
                            "originType": "Collected",
                            "originSource": "Investigator",
                            "WhereClause": [
                                {
                                    "Clause": [
                                        {
                                            "Dataset": "VS",
                                            "Variable": "VSTESTCD",
                                            "Codelist Concept ID": "C66741",
                                            "Comparator": "EQ",
                                            "Values": [
                                                "HEIGHT"
                                            ]
                                        }
                                    ]
                                }
                            ]
                        },
                        {
                            "role": "Qualifier",
                            "dataType": "integer",
                            "length": 3,
                            "originType": "Collected",
                            "originSource": "Investigator",
                            "WhereClause": [
                                {
                                    "Clause": [
                                        {
                                            "Dataset": "VS",
                                            "Variable": "VSTESTCD",
                                            "Codelist Concept ID": "C66741",
                                            "Comparator": "EQ",
                                            "Values": [
                                                "SYSBP"
                                            ]
                                        }
                                    ]
                                },
                                {
                                    "Clause": [
                                        {
                                            "Dataset": "VS",
                                            "Variable": "VSPOS",
                                            "Codelist Concept ID": "C71148",
                                            "Comparator": "IN",
                                            "Values": [
                                                "PRONE",
                                                "SEMI-RECUMBENT",
                                                "SITTING",
                                                "STANDING",
                                                "SUPINE"
                                            ]
                                        }
                                    ]
                                },
                                {
                                    "Clause": [
                                        {
                                            "Dataset": "VS",
                                            "Variable": "VSLOC",
                                            "Codelist Concept ID": "C74456",
                                            "Comparator": "IN",
                                            "Values": [
                                                "BRACHIAL ARTERY",
                                                "CAROTID ARTERY",
                                                "DORSALIS PEDIS ARTERY",
                                                "FEMORAL ARTERY",
                                                "FINGER",
                                                "RADIAL ARTERY"
                                            ]
                                        }
                                    ]
                                },
                                {
                                    "Clause": [
                                        {
                                            "Dataset": "VS",
                                            "Variable": "VSLAT",
                                            "Codelist Concept ID": "C99073",
                                            "Comparator": "IN",
                                            "Values": [
                                                "LEFT",
                                                "RIGHT"
                                            ]
                                        }
                                    ]
                                }
                            ]
                        },
                        {
                            "role": "Qualifier",
                            "dataType": "integer",
                            "length": 3,
                            "originType": "Collected",
                            "originSource": "Investigator",
                            "WhereClause": [
                                {
                                    "Clause": [
                                        {
                                            "Dataset": "VS",
                                            "Variable": "VSTESTCD",
                                            "Codelist Concept ID": "C66741",
                                            "Comparator": "EQ",
                                            "Values": [
                                                "DIABP"
                                            ]
                                        }
                                    ]
                                },
                                {
                                    "Clause": [
                                        {
                                            "Dataset": "VS",
                                            "Variable": "VSPOS",
                                            "Codelist Concept ID": "C71148",
                                            "Comparator": "IN",
                                            "Values": [
                                                "PRONE",
                                                "SEMI-RECUMBENT",
                                                "SITTING",
                                                "STANDING",
                                                "SUPINE"
                                            ]
                                        }
                                    ]
                                },
                                {
                                    "Clause": [
                                        {
                                            "Dataset": "VS",
                                            "Variable": "VSLOC",
                                            "Codelist Concept ID": "C74456",
                                            "Comparator": "IN",
                                            "Values": [
                                                "BRACHIAL ARTERY",
                                                "CAROTID ARTERY",
                                                "DORSALIS PEDIS ARTERY",
                                                "FEMORAL ARTERY",
                                                "FINGER",
                                                "RADIAL ARTERY"
                                            ]
                                        }
                                    ]
                                },
                                {
                                    "Clause": [
                                        {
                                            "Dataset": "VS",
                                            "Variable": "VSLAT",
                                            "Codelist Concept ID": "C99073",
                                            "Comparator": "IN",
                                            "Values": [
                                                "LEFT",
                                                "RIGHT"
                                            ]
                                        }
                                    ]
                                }
                            ]
                        },
                        {
                            "role": "Qualifier",
                            "dataType": "integer",
                            "length": 3,
                            "originType": "Collected",
                            "originSource": "Investigator",
                            "WhereClause": [
                                {
                                    "Clause": [
                                        {
                                            "Dataset": "VS",
                                            "Variable": "VSTESTCD",
                                            "Codelist Concept ID": "C66741",
                                            "Comparator": "EQ",
                                            "Values": [
                                                "HR"
                                            ]
                                        }
                                    ]
                                },
                                {
                                    "Clause": [
                                        {
                                            "Dataset": "VS",
                                            "Variable": "VSPOS",
                                            "Codelist Concept ID": "C71148",
                                            "Comparator": "IN",
                                            "Values": [
                                                "PRONE",
                                                "SEMI-RECUMBENT",
                                                "SITTING",
                                                "STANDING",
                                                "SUPINE"
                                            ]
                                        }
                                    ]
                                },
                                {
                                    "Clause": [
                                        {
                                            "Dataset": "VS",
                                            "Variable": "VSLOC",
                                            "Codelist Concept ID": "C74456",
                                            "Comparator": "IN",
                                            "Values": [
                                                "BRACHIAL ARTERY",
                                                "CAROTID ARTERY",
                                                "CEREBRAL ARTERY",
                                                "DORSALIS PEDIS ARTERY",
                                                "FEMORAL ARTERY",
                                                "RADIAL ARTERY"
                                            ]
                                        }
                                    ]
                                },
                                {
                                    "Clause": [
                                        {
                                            "Dataset": "VS",
                                            "Variable": "VSLAT",
                                            "Codelist Concept ID": "C99073",
                                            "Comparator": "IN",
                                            "Values": [
                                                "LEFT",
                                                "RIGHT"
                                            ]
                                        }
                                    ]
                                }
                            ]
                        },
                        {
                            "role": "Qualifier",
                            "dataType": "integer",
                            "length": 3,
                            "originType": "Collected",
                            "originSource": "Investigator",
                            "WhereClause": [
                                {
                                    "Clause": [
                                        {
                                            "Dataset": "VS",
                                            "Variable": "VSTESTCD",
                                            "Codelist Concept ID": "C66741",
                                            "Comparator": "EQ",
                                            "Values": [
                                                "SYSBP"
                                            ]
                                        }
                                    ]
                                },
                                {
                                    "Clause": [
                                        {
                                            "Dataset": "VS",
                                            "Variable": "VSPOS",
                                            "Codelist Concept ID": "C71148",
                                            "Comparator": "IN",
                                            "Values": [
                                                "PRONE",
                                                "SEMI-RECUMBENT",
                                                "SITTING",
                                                "STANDING",
                                                "SUPINE"
                                            ]
                                        }
                                    ]
                                },
                                {
                                    "Clause": [
                                        {
                                            "Dataset": "VS",
                                            "Variable": "VSLOC",
                                            "Codelist Concept ID": "C74456",
                                            "Comparator": "IN",
                                            "Values": [
                                                "BRACHIAL ARTERY",
                                                "CAROTID ARTERY",
                                                "DORSALIS PEDIS ARTERY",
                                                "FEMORAL ARTERY",
                                                "FINGER",
                                                "RADIAL ARTERY"
                                            ]
                                        }
                                    ]
                                },
                                {
                                    "Clause": [
                                        {
                                            "Dataset": "VS",
                                            "Variable": "VSLAT",
                                            "Codelist Concept ID": "C99073",
                                            "Comparator": "IN",
                                            "Values": [
                                                "LEFT",
                                                "RIGHT"
                                            ]
                                        }
                                    ]
                                }
                            ]
                        },
                        {
                            "role": "Qualifier",
                            "dataType": "integer",
                            "length": 3,
                            "originType": "Collected",
                            "originSource": "Investigator",
                            "WhereClause": [
                                {
                                    "Clause": [
                                        {
                                            "Dataset": "VS",
                                            "Variable": "VSTESTCD",
                                            "Codelist Concept ID": "C66741",
                                            "Comparator": "EQ",
                                            "Values": [
                                                "DIABP"
                                            ]
                                        }
                                    ]
                                },
                                {
                                    "Clause": [
                                        {
                                            "Dataset": "VS",
                                            "Variable": "VSPOS",
                                            "Codelist Concept ID": "C71148",
                                            "Comparator": "IN",
                                            "Values": [
                                                "PRONE",
                                                "SEMI-RECUMBENT",
                                                "SITTING",
                                                "STANDING",
                                                "SUPINE"
                                            ]
                                        }
                                    ]
                                },
                                {
                                    "Clause": [
                                        {
                                            "Dataset": "VS",
                                            "Variable": "VSLOC",
                                            "Codelist Concept ID": "C74456",
                                            "Comparator": "IN",
                                            "Values": [
                                                "BRACHIAL ARTERY",
                                                "CAROTID ARTERY",
                                                "DORSALIS PEDIS ARTERY",
                                                "FEMORAL ARTERY",
                                                "FINGER",
                                                "RADIAL ARTERY"
                                            ]
                                        }
                                    ]
                                },
                                {
                                    "Clause": [
                                        {
                                            "Dataset": "VS",
                                            "Variable": "VSLAT",
                                            "Codelist Concept ID": "C99073",
                                            "Comparator": "IN",
                                            "Values": [
                                                "LEFT",
                                                "RIGHT"
                                            ]
                                        }
                                    ]
                                }
                            ]
                        },
                        {
                            "role": "Qualifier",
                            "dataType": "integer",
                            "length": 3,
                            "originType": "Collected",
                            "originSource": "Investigator",
                            "WhereClause": [
                                {
                                    "Clause": [
                                        {
                                            "Dataset": "VS",
                                            "Variable": "VSTESTCD",
                                            "Codelist Concept ID": "C66741",
                                            "Comparator": "EQ",
                                            "Values": [
                                                "HR"
                                            ]
                                        }
                                    ]
                                },
                                {
                                    "Clause": [
                                        {
                                            "Dataset": "VS",
                                            "Variable": "VSPOS",
                                            "Codelist Concept ID": "C71148",
                                            "Comparator": "IN",
                                            "Values": [
                                                "PRONE",
                                                "SEMI-RECUMBENT",
                                                "SITTING",
                                                "STANDING",
                                                "SUPINE"
                                            ]
                                        }
                                    ]
                                },
                                {
                                    "Clause": [
                                        {
                                            "Dataset": "VS",
                                            "Variable": "VSLOC",
                                            "Codelist Concept ID": "C74456",
                                            "Comparator": "IN",
                                            "Values": [
                                                "BRACHIAL ARTERY",
                                                "CAROTID ARTERY",
                                                "CEREBRAL ARTERY",
                                                "DORSALIS PEDIS ARTERY",
                                                "FEMORAL ARTERY",
                                                "RADIAL ARTERY"
                                            ]
                                        }
                                    ]
                                },
                                {
                                    "Clause": [
                                        {
                                            "Dataset": "VS",
                                            "Variable": "VSLAT",
                                            "Codelist Concept ID": "C99073",
                                            "Comparator": "IN",
                                            "Values": [
                                                "LEFT",
                                                "RIGHT"
                                            ]
                                        }
                                    ]
                                }
                            ]
                        }
                    ]
                },
                {
                    "Variable": "VSORRESU",
                    "Label": "Original Units",
                    "Data Type": "Char",
                    "Role": "Variable Qualifier",
                    "CodeList": [
                        "VSRESU"
                    ],
                    "VLM": [
                        {
                            "role": "Qualifier",
                            "responseCodes": [
                                "C",
                                "F",
                                "K"
                            ],
                            "WhereClause": [
                                {
                                    "Clause": [
                                        {
                                            "Dataset": "VS",
                                            "Variable": "VSTESTCD",
                                            "Codelist Concept ID": "C66741",
                                            "Comparator": "EQ",
                                            "Values": [
                                                "TEMP"
                                            ]
                                        }
                                    ]
                                },
                                {
                                    "Clause": [
                                        {
                                            "Dataset": "VS",
                                            "Variable": "VSLOC",
                                            "Codelist Concept ID": "C74456",
                                            "Comparator": "IN",
                                            "Values": [
                                                "AXILLA",
                                                "EAR",
                                                "FOREHEAD",
                                                "ORAL CAVITY",
                                                "RECTUM"
                                            ]
                                        }
                                    ]
                                }
                            ]
                        },
                        {
                            "role": "Qualifier",
                            "responseCodes": [
                                "LB",
                                "g",
                                "kg"
                            ],
                            "WhereClause": [
                                {
                                    "Clause": [
                                        {
                                            "Dataset": "VS",
                                            "Variable": "VSTESTCD",
                                            "Codelist Concept ID": "C66741",
                                            "Comparator": "EQ",
                                            "Values": [
                                                "WEIGHT"
                                            ]
                                        }
                                    ]
                                }
                            ]
                        },
                        {
                            "role": "Qualifier",
                            "responseCodes": [
                                "cm",
                                "in",
                                "m"
                            ],
                            "WhereClause": [
                                {
                                    "Clause": [
                                        {
                                            "Dataset": "VS",
                                            "Variable": "VSTESTCD",
                                            "Codelist Concept ID": "C66741",
                                            "Comparator": "EQ",
                                            "Values": [
                                                "HEIGHT"
                                            ]
                                        }
                                    ]
                                }
                            ]
                        },
                        {
                            "role": "Qualifier",
                            "WhereClause": [
                                {
                                    "Clause": [
                                        {
                                            "Dataset": "VS",
                                            "Variable": "VSTESTCD",
                                            "Codelist Concept ID": "C66741",
                                            "Comparator": "EQ",
                                            "Values": [
                                                "SYSBP"
                                            ]
                                        }
                                    ]
                                },
                                {
                                    "Clause": [
                                        {
                                            "Dataset": "VS",
                                            "Variable": "VSPOS",
                                            "Codelist Concept ID": "C71148",
                                            "Comparator": "IN",
                                            "Values": [
                                                "PRONE",
                                                "SEMI-RECUMBENT",
                                                "SITTING",
                                                "STANDING",
                                                "SUPINE"
                                            ]
                                        }
                                    ]
                                },
                                {
                                    "Clause": [
                                        {
                                            "Dataset": "VS",
                                            "Variable": "VSLOC",
                                            "Codelist Concept ID": "C74456",
                                            "Comparator": "IN",
                                            "Values": [
                                                "BRACHIAL ARTERY",
                                                "CAROTID ARTERY",
                                                "DORSALIS PEDIS ARTERY",
                                                "FEMORAL ARTERY",
                                                "FINGER",
                                                "RADIAL ARTERY"
                                            ]
                                        }
                                    ]
                                },
                                {
                                    "Clause": [
                                        {
                                            "Dataset": "VS",
                                            "Variable": "VSLAT",
                                            "Codelist Concept ID": "C99073",
                                            "Comparator": "IN",
                                            "Values": [
                                                "LEFT",
                                                "RIGHT"
                                            ]
                                        }
                                    ]
                                }
                            ]
                        },
                        {
                            "role": "Qualifier",
                            "WhereClause": [
                                {
                                    "Clause": [
                                        {
                                            "Dataset": "VS",
                                            "Variable": "VSTESTCD",
                                            "Codelist Concept ID": "C66741",
                                            "Comparator": "EQ",
                                            "Values": [
                                                "DIABP"
                                            ]
                                        }
                                    ]
                                },
                                {
                                    "Clause": [
                                        {
                                            "Dataset": "VS",
                                            "Variable": "VSPOS",
                                            "Codelist Concept ID": "C71148",
                                            "Comparator": "IN",
                                            "Values": [
                                                "PRONE",
                                                "SEMI-RECUMBENT",
                                                "SITTING",
                                                "STANDING",
                                                "SUPINE"
                                            ]
                                        }
                                    ]
                                },
                                {
                                    "Clause": [
                                        {
                                            "Dataset": "VS",
                                            "Variable": "VSLOC",
                                            "Codelist Concept ID": "C74456",
                                            "Comparator": "IN",
                                            "Values": [
                                                "BRACHIAL ARTERY",
                                                "CAROTID ARTERY",
                                                "DORSALIS PEDIS ARTERY",
                                                "FEMORAL ARTERY",
                                                "FINGER",
                                                "RADIAL ARTERY"
                                            ]
                                        }
                                    ]
                                },
                                {
                                    "Clause": [
                                        {
                                            "Dataset": "VS",
                                            "Variable": "VSLAT",
                                            "Codelist Concept ID": "C99073",
                                            "Comparator": "IN",
                                            "Values": [
                                                "LEFT",
                                                "RIGHT"
                                            ]
                                        }
                                    ]
                                }
                            ]
                        },
                        {
                            "role": "Qualifier",
                            "responseCodes": [
                                "C",
                                "F",
                                "K"
                            ],
                            "WhereClause": [
                                {
                                    "Clause": [
                                        {
                                            "Dataset": "VS",
                                            "Variable": "VSTESTCD",
                                            "Codelist Concept ID": "C66741",
                                            "Comparator": "EQ",
                                            "Values": [
                                                "TEMP"
                                            ]
                                        }
                                    ]
                                },
                                {
                                    "Clause": [
                                        {
                                            "Dataset": "VS",
                                            "Variable": "VSLOC",
                                            "Codelist Concept ID": "C74456",
                                            "Comparator": "IN",
                                            "Values": [
                                                "AXILLA",
                                                "EAR",
                                                "FOREHEAD",
                                                "ORAL CAVITY",
                                                "RECTUM"
                                            ]
                                        }
                                    ]
                                }
                            ]
                        },
                        {
                            "role": "Qualifier",
                            "responseCodes": [
                                "LB",
                                "g",
                                "kg"
                            ],
                            "WhereClause": [
                                {
                                    "Clause": [
                                        {
                                            "Dataset": "VS",
                                            "Variable": "VSTESTCD",
                                            "Codelist Concept ID": "C66741",
                                            "Comparator": "EQ",
                                            "Values": [
                                                "WEIGHT"
                                            ]
                                        }
                                    ]
                                }
                            ]
                        },
                        {
                            "role": "Qualifier",
                            "responseCodes": [
                                "cm",
                                "in",
                                "m"
                            ],
                            "WhereClause": [
                                {
                                    "Clause": [
                                        {
                                            "Dataset": "VS",
                                            "Variable": "VSTESTCD",
                                            "Codelist Concept ID": "C66741",
                                            "Comparator": "EQ",
                                            "Values": [
                                                "HEIGHT"
                                            ]
                                        }
                                    ]
                                }
                            ]
                        },
                        {
                            "role": "Qualifier",
                            "WhereClause": [
                                {
                                    "Clause": [
                                        {
                                            "Dataset": "VS",
                                            "Variable": "VSTESTCD",
                                            "Codelist Concept ID": "C66741",
                                            "Comparator": "EQ",
                                            "Values": [
                                                "SYSBP"
                                            ]
                                        }
                                    ]
                                },
                                {
                                    "Clause": [
                                        {
                                            "Dataset": "VS",
                                            "Variable": "VSPOS",
                                            "Codelist Concept ID": "C71148",
                                            "Comparator": "IN",
                                            "Values": [
                                                "PRONE",
                                                "SEMI-RECUMBENT",
                                                "SITTING",
                                                "STANDING",
                                                "SUPINE"
                                            ]
                                        }
                                    ]
                                },
                                {
                                    "Clause": [
                                        {
                                            "Dataset": "VS",
                                            "Variable": "VSLOC",
                                            "Codelist Concept ID": "C74456",
                                            "Comparator": "IN",
                                            "Values": [
                                                "BRACHIAL ARTERY",
                                                "CAROTID ARTERY",
                                                "DORSALIS PEDIS ARTERY",
                                                "FEMORAL ARTERY",
                                                "FINGER",
                                                "RADIAL ARTERY"
                                            ]
                                        }
                                    ]
                                },
                                {
                                    "Clause": [
                                        {
                                            "Dataset": "VS",
                                            "Variable": "VSLAT",
                                            "Codelist Concept ID": "C99073",
                                            "Comparator": "IN",
                                            "Values": [
                                                "LEFT",
                                                "RIGHT"
                                            ]
                                        }
                                    ]
                                }
                            ]
                        },
                        {
                            "role": "Qualifier",
                            "WhereClause": [
                                {
                                    "Clause": [
                                        {
                                            "Dataset": "VS",
                                            "Variable": "VSTESTCD",
                                            "Codelist Concept ID": "C66741",
                                            "Comparator": "EQ",
                                            "Values": [
                                                "DIABP"
                                            ]
                                        }
                                    ]
                                },
                                {
                                    "Clause": [
                                        {
                                            "Dataset": "VS",
                                            "Variable": "VSPOS",
                                            "Codelist Concept ID": "C71148",
                                            "Comparator": "IN",
                                            "Values": [
                                                "PRONE",
                                                "SEMI-RECUMBENT",
                                                "SITTING",
                                                "STANDING",
                                                "SUPINE"
                                            ]
                                        }
                                    ]
                                },
                                {
                                    "Clause": [
                                        {
                                            "Dataset": "VS",
                                            "Variable": "VSLOC",
                                            "Codelist Concept ID": "C74456",
                                            "Comparator": "IN",
                                            "Values": [
                                                "BRACHIAL ARTERY",
                                                "CAROTID ARTERY",
                                                "DORSALIS PEDIS ARTERY",
                                                "FEMORAL ARTERY",
                                                "FINGER",
                                                "RADIAL ARTERY"
                                            ]
                                        }
                                    ]
                                },
                                {
                                    "Clause": [
                                        {
                                            "Dataset": "VS",
                                            "Variable": "VSLAT",
                                            "Codelist Concept ID": "C99073",
                                            "Comparator": "IN",
                                            "Values": [
                                                "LEFT",
                                                "RIGHT"
                                            ]
                                        }
                                    ]
                                }
                            ]
                        },
                        {
                            "role": "Qualifier",
                            "WhereClause": [
                                {
                                    "Clause": [
                                        {
                                            "Dataset": "VS",
                                            "Variable": "VSTESTCD",
                                            "Codelist Concept ID": "C66741",
                                            "Comparator": "EQ",
                                            "Values": [
                                                "HR"
                                            ]
                                        }
                                    ]
                                },
                                {
                                    "Clause": [
                                        {
                                            "Dataset": "VS",
                                            "Variable": "VSPOS",
                                            "Codelist Concept ID": "C71148",
                                            "Comparator": "IN",
                                            "Values": [
                                                "PRONE",
                                                "SEMI-RECUMBENT",
                                                "SITTING",
                                                "STANDING",
                                                "SUPINE"
                                            ]
                                        }
                                    ]
                                },
                                {
                                    "Clause": [
                                        {
                                            "Dataset": "VS",
                                            "Variable": "VSLOC",
                                            "Codelist Concept ID": "C74456",
                                            "Comparator": "IN",
                                            "Values": [
                                                "BRACHIAL ARTERY",
                                                "CAROTID ARTERY",
                                                "CEREBRAL ARTERY",
                                                "DORSALIS PEDIS ARTERY",
                                                "FEMORAL ARTERY",
                                                "RADIAL ARTERY"
                                            ]
                                        }
                                    ]
                                },
                                {
                                    "Clause": [
                                        {
                                            "Dataset": "VS",
                                            "Variable": "VSLAT",
                                            "Codelist Concept ID": "C99073",
                                            "Comparator": "IN",
                                            "Values": [
                                                "LEFT",
                                                "RIGHT"
                                            ]
                                        }
                                    ]
                                }
                            ]
                        },
                        {
                            "role": "Qualifier",
                            "WhereClause": [
                                {
                                    "Clause": [
                                        {
                                            "Dataset": "VS",
                                            "Variable": "VSTESTCD",
                                            "Codelist Concept ID": "C66741",
                                            "Comparator": "EQ",
                                            "Values": [
                                                "SYSBP"
                                            ]
                                        }
                                    ]
                                },
                                {
                                    "Clause": [
                                        {
                                            "Dataset": "VS",
                                            "Variable": "VSPOS",
                                            "Codelist Concept ID": "C71148",
                                            "Comparator": "IN",
                                            "Values": [
                                                "PRONE",
                                                "SEMI-RECUMBENT",
                                                "SITTING",
                                                "STANDING",
                                                "SUPINE"
                                            ]
                                        }
                                    ]
                                },
                                {
                                    "Clause": [
                                        {
                                            "Dataset": "VS",
                                            "Variable": "VSLOC",
                                            "Codelist Concept ID": "C74456",
                                            "Comparator": "IN",
                                            "Values": [
                                                "BRACHIAL ARTERY",
                                                "CAROTID ARTERY",
                                                "DORSALIS PEDIS ARTERY",
                                                "FEMORAL ARTERY",
                                                "FINGER",
                                                "RADIAL ARTERY"
                                            ]
                                        }
                                    ]
                                },
                                {
                                    "Clause": [
                                        {
                                            "Dataset": "VS",
                                            "Variable": "VSLAT",
                                            "Codelist Concept ID": "C99073",
                                            "Comparator": "IN",
                                            "Values": [
                                                "LEFT",
                                                "RIGHT"
                                            ]
                                        }
                                    ]
                                }
                            ]
                        },
                        {
                            "role": "Qualifier",
                            "WhereClause": [
                                {
                                    "Clause": [
                                        {
                                            "Dataset": "VS",
                                            "Variable": "VSTESTCD",
                                            "Codelist Concept ID": "C66741",
                                            "Comparator": "EQ",
                                            "Values": [
                                                "DIABP"
                                            ]
                                        }
                                    ]
                                },
                                {
                                    "Clause": [
                                        {
                                            "Dataset": "VS",
                                            "Variable": "VSPOS",
                                            "Codelist Concept ID": "C71148",
                                            "Comparator": "IN",
                                            "Values": [
                                                "PRONE",
                                                "SEMI-RECUMBENT",
                                                "SITTING",
                                                "STANDING",
                                                "SUPINE"
                                            ]
                                        }
                                    ]
                                },
                                {
                                    "Clause": [
                                        {
                                            "Dataset": "VS",
                                            "Variable": "VSLOC",
                                            "Codelist Concept ID": "C74456",
                                            "Comparator": "IN",
                                            "Values": [
                                                "BRACHIAL ARTERY",
                                                "CAROTID ARTERY",
                                                "DORSALIS PEDIS ARTERY",
                                                "FEMORAL ARTERY",
                                                "FINGER",
                                                "RADIAL ARTERY"
                                            ]
                                        }
                                    ]
                                },
                                {
                                    "Clause": [
                                        {
                                            "Dataset": "VS",
                                            "Variable": "VSLAT",
                                            "Codelist Concept ID": "C99073",
                                            "Comparator": "IN",
                                            "Values": [
                                                "LEFT",
                                                "RIGHT"
                                            ]
                                        }
                                    ]
                                }
                            ]
                        },
                        {
                            "role": "Qualifier",
                            "WhereClause": [
                                {
                                    "Clause": [
                                        {
                                            "Dataset": "VS",
                                            "Variable": "VSTESTCD",
                                            "Codelist Concept ID": "C66741",
                                            "Comparator": "EQ",
                                            "Values": [
                                                "HR"
                                            ]
                                        }
                                    ]
                                },
                                {
                                    "Clause": [
                                        {
                                            "Dataset": "VS",
                                            "Variable": "VSPOS",
                                            "Codelist Concept ID": "C71148",
                                            "Comparator": "IN",
                                            "Values": [
                                                "PRONE",
                                                "SEMI-RECUMBENT",
                                                "SITTING",
                                                "STANDING",
                                                "SUPINE"
                                            ]
                                        }
                                    ]
                                },
                                {
                                    "Clause": [
                                        {
                                            "Dataset": "VS",
                                            "Variable": "VSLOC",
                                            "Codelist Concept ID": "C74456",
                                            "Comparator": "IN",
                                            "Values": [
                                                "BRACHIAL ARTERY",
                                                "CAROTID ARTERY",
                                                "CEREBRAL ARTERY",
                                                "DORSALIS PEDIS ARTERY",
                                                "FEMORAL ARTERY",
                                                "RADIAL ARTERY"
                                            ]
                                        }
                                    ]
                                },
                                {
                                    "Clause": [
                                        {
                                            "Dataset": "VS",
                                            "Variable": "VSLAT",
                                            "Codelist Concept ID": "C99073",
                                            "Comparator": "IN",
                                            "Values": [
                                                "LEFT",
                                                "RIGHT"
                                            ]
                                        }
                                    ]
                                }
                            ]
                        }
                    ]
                },
                {
                    "Variable": "VSSTRESC",
                    "Label": "Character Result/Finding in Std Format",
                    "Data Type": "Char",
                    "Role": "Result Qualifier"
                },
                {
                    "Variable": "VSSTRESN",
                    "Label": "Numeric Result/Finding in Standard Units",
                    "Data Type": "Num",
                    "Role": "Result Qualifier"
                },
                {
                    "Variable": "VSSTRESU",
                    "Label": "Standard Units",
                    "Data Type": "Char",
                    "Role": "Variable Qualifier",
                    "CodeList": [
                        "VSRESU"
                    ]
                },
                {
                    "Variable": "VSLOC",
                    "Label": "Location of Vital Signs Measurement",
                    "Data Type": "Char",
                    "Role": "Record Qualifier",
                    "CodeList": [
                        "LOC"
                    ]
                },
                {
                    "Variable": "VSLAT",
                    "Label": "Laterality",
                    "Data Type": "Char",
                    "Role": "Result Qualifier",
                    "CodeList": [
                        "LAT"
                    ]
                },
                {
                    "Variable": "VSLOBXFL",
                    "Label": "Last Observation Before Exposure Flag",
                    "Data Type": "Char",
                    "Role": "Record Qualifier",
                    "CodeList": [
                        "NY"
                    ]
                },
                {
                    "Variable": "VISITNUM",
                    "Label": "Visit Number",
                    "Data Type": "Num",
                    "Role": "Timing"
                },
                {
                    "Variable": "VSDTC",
                    "Label": "Date/Time of Measurements",
                    "Data Type": "Char",
                    "Role": "Timing"
                }
            ]
        },
        "LB": {
            "Description": "Laboratory Test Results",
            "Class": "Findings",
            "Structure": "One record per lab test per time point per visit per subject",
            "Variables": [
                {
                    "Variable": "STUDYID",
                    "Label": "Study Identifier",
                    "Data Type": "Char",
                    "Role": "Identifier"
                },
                {
                    "Variable": "DOMAIN",
                    "Label": "Domain Abbreviation",
                    "Data Type": "Char",
                    "Role": "Identifier"
                },
                {
                    "Variable": "USUBJID",
                    "Label": "Unique Subject Identifier",
                    "Data Type": "Char",
                    "Role": "Identifier"
                },
                {
                    "Variable": "LBSEQ",
                    "Label": "Sequence Number",
                    "Data Type": "Num",
                    "Role": "Identifier"
                },
                {
                    "Variable": "LBTESTCD",
                    "Label": "Lab Test or Examination Short Name",
                    "Data Type": "Char",
                    "Role": "Topic",
                    "CodeList": [
                        "LBTESTCD"
                    ]
                },
                {
                    "Variable": "LBTEST",
                    "Label": "Lab Test or Examination Name",
                    "Data Type": "Char",
                    "Role": "Synonym Qualifier",
                    "CodeList": [
                        "LBTEST"
                    ]
                },
                {
                    "Variable": "LBCAT",
                    "Label": "Category for Lab Test",
                    "Data Type": "Char",
                    "Role": "Grouping Qualifier"
                },
                {
                    "Variable": "LBORRES",
                    "Label": "Result or Finding in Original Units",
                    "Data Type": "Char",
                    "Role": "Result Qualifier",
                    "VLM": [
                        {
                            "role": "Qualifier",
                            "dataType": "float",
                            "length": 12,
                            "format": "12.4",
                            "significantDigits": 4,
                            "originType": "Collected",
                            "originSource": "Vendor",
                            "WhereClause": [
                                {
                                    "Clause": [
                                        {
                                            "Dataset": "LB",
                                            "Variable": "LBTESTCD",
                                            "Codelist Concept ID": "C65047",
                                            "Comparator": "EQ",
                                            "Values": [
                                                "ALT"
                                            ]
                                        }
                                    ]
                                },
                                {
                                    "Clause": [
                                        {
                                            "Dataset": "LB",
                                            "Variable": "LBSPEC",
                                            "Codelist Concept ID": "C78734",
                                            "Comparator": "EQ",
                                            "Values": [
                                                "SERUM OR PLASMA"
                                            ]
                                        }
                                    ]
                                }
                            ]
                        },
                        {
                            "role": "Qualifier",
                            "dataType": "text",
                            "length": 200,
                            "significantDigits": 4,
                            "originType": "Collected",
                            "originSource": "Vendor",
                            "WhereClause": [
                                {
                                    "Clause": [
                                        {
                                            "Dataset": "LB",
                                            "Variable": "LBTESTCD",
                                            "Codelist Concept ID": "C65047",
                                            "Comparator": "EQ",
                                            "Values": [
                                                "ALB"
                                            ]
                                        }
                                    ]
                                },
                                {
                                    "Clause": [
                                        {
                                            "Dataset": "LB",
                                            "Variable": "LBSPEC",
                                            "Codelist Concept ID": "C78734",
                                            "Comparator": "EQ",
                                            "Values": [
                                                "URINE"
                                            ]
                                        }
                                    ]
                                }
                            ]
                        },
                        {
                            "role": "Qualifier",
                            "dataType": "float",
                            "length": 12,
                            "format": "12.4",
                            "significantDigits": 4,
                            "originType": "Collected",
                            "originSource": "Vendor",
                            "WhereClause": [
                                {
                                    "Clause": [
                                        {
                                            "Dataset": "LB",
                                            "Variable": "LBTESTCD",
                                            "Codelist Concept ID": "C65047",
                                            "Comparator": "EQ",
                                            "Values": [
                                                "ALP"
                                            ]
                                        }
                                    ]
                                },
                                {
                                    "Clause": [
                                        {
                                            "Dataset": "LB",
                                            "Variable": "LBSPEC",
                                            "Codelist Concept ID": "C78734",
                                            "Comparator": "EQ",
                                            "Values": [
                                                "SERUM OR PLASMA"
                                            ]
                                        }
                                    ]
                                }
                            ]
                        },
                        {
                            "role": "Qualifier",
                            "dataType": "float",
                            "length": 12,
                            "format": "12.4",
                            "significantDigits": 4,
                            "originType": "Collected",
                            "originSource": "Vendor",
                            "WhereClause": [
                                {
                                    "Clause": [
                                        {
                                            "Dataset": "LB",
                                            "Variable": "LBTESTCD",
                                            "Codelist Concept ID": "C65047",
                                            "Comparator": "EQ",
                                            "Values": [
                                                "AST"
                                            ]
                                        }
                                    ]
                                },
                                {
                                    "Clause": [
                                        {
                                            "Dataset": "LB",
                                            "Variable": "LBSPEC",
                                            "Codelist Concept ID": "C78734",
                                            "Comparator": "EQ",
                                            "Values": [
                                                "SERUM OR PLASMA"
                                            ]
                                        }
                                    ]
                                }
                            ]
                        },
                        {
                            "role": "Qualifier",
                            "dataType": "float",
                            "length": 12,
                            "format": "12.4",
                            "significantDigits": 4,
                            "originType": "Collected",
                            "originSource": "Vendor",
                            "WhereClause": [
                                {
                                    "Clause": [
                                        {
                                            "Dataset": "LB",
                                            "Variable": "LBTESTCD",
                                            "Codelist Concept ID": "C65047",
                                            "Comparator": "EQ",
                                            "Values": [
                                                "CREAT"
                                            ]
                                        }
                                    ]
                                },
                                {
                                    "Clause": [
                                        {
                                            "Dataset": "LB",
                                            "Variable": "LBSPEC",
                                            "Codelist Concept ID": "C78734",
                                            "Comparator": "EQ",
                                            "Values": [
                                                "URINE"
                                            ]
                                        }
                                    ]
                                }
                            ]
                        },
                        {
                            "role": "Qualifier",
                            "dataType": "float",
                            "length": 12,
                            "format": "12.4",
                            "significantDigits": 4,
                            "originType": "Collected",
                            "originSource": "Vendor",
                            "WhereClause": [
                                {
                                    "Clause": [
                                        {
                                            "Dataset": "LB",
                                            "Variable": "LBTESTCD",
                                            "Codelist Concept ID": "C65047",
                                            "Comparator": "EQ",
                                            "Values": [
                                                "K"
                                            ]
                                        }
                                    ]
                                },
                                {
                                    "Clause": [
                                        {
                                            "Dataset": "LB",
                                            "Variable": "LBSPEC",
                                            "Codelist Concept ID": "C78734",
                                            "Comparator": "EQ",
                                            "Values": [
                                                "URINE"
                                            ]
                                        }
                                    ]
                                }
                            ]
                        },
                        {
                            "role": "Qualifier",
                            "dataType": "float",
                            "length": 12,
                            "format": "12.4",
                            "significantDigits": 4,
                            "originType": "Collected",
                            "originSource": "Vendor",
                            "WhereClause": [
                                {
                                    "Clause": [
                                        {
                                            "Dataset": "LB",
                                            "Variable": "LBTESTCD",
                                            "Codelist Concept ID": "C65047",
                                            "Comparator": "EQ",
                                            "Values": [
                                                "SODIUM"
                                            ]
                                        }
                                    ]
                                },
                                {
                                    "Clause": [
                                        {
                                            "Dataset": "LB",
                                            "Variable": "LBSPEC",
                                            "Codelist Concept ID": "C78734",
                                            "Comparator": "EQ",
                                            "Values": [
                                                "URINE"
                                            ]
                                        }
                                    ]
                                }
                            ]
                        },
                        {
                            "role": "Qualifier",
                            "dataType": "float",
                            "length": 12,
                            "format": "12.4",
                            "significantDigits": 4,
                            "originType": "Collected",
                            "originSource": "Vendor",
                            "WhereClause": [
                                {
                                    "Clause": [
                                        {
                                            "Dataset": "LB",
                                            "Variable": "LBTESTCD",
                                            "Codelist Concept ID": "C65047",
                                            "Comparator": "EQ",
                                            "Values": [
                                                "HBA1C"
                                            ]
                                        }
                                    ]
                                },
                                {
                                    "Clause": [
                                        {
                                            "Dataset": "LB",
                                            "Variable": "LBSPEC",
                                            "Codelist Concept ID": "C78734",
                                            "Comparator": "EQ",
                                            "Values": [
                                                "BLOOD"
                                            ]
                                        }
                                    ]
                                }
                            ]
                        },
                        {
                            "role": "Qualifier",
                            "dataType": "float",
                            "length": 12,
                            "format": "12.4",
                            "significantDigits": 4,
                            "originType": "Collected",
                            "originSource": "Vendor",
                            "WhereClause": [
                                {
                                    "Clause": [
                                        {
                                            "Dataset": "LB",
                                            "Variable": "LBTESTCD",
                                            "Codelist Concept ID": "C65047",
                                            "Comparator": "EQ",
                                            "Values": [
                                                "ALT"
                                            ]
                                        }
                                    ]
                                },
                                {
                                    "Clause": [
                                        {
                                            "Dataset": "LB",
                                            "Variable": "LBSPEC",
                                            "Codelist Concept ID": "C78734",
                                            "Comparator": "EQ",
                                            "Values": [
                                                "SERUM OR PLASMA"
                                            ]
                                        }
                                    ]
                                }
                            ]
                        },
                        {
                            "role": "Qualifier",
                            "dataType": "text",
                            "length": 200,
                            "significantDigits": 4,
                            "originType": "Collected",
                            "originSource": "Vendor",
                            "WhereClause": [
                                {
                                    "Clause": [
                                        {
                                            "Dataset": "LB",
                                            "Variable": "LBTESTCD",
                                            "Codelist Concept ID": "C65047",
                                            "Comparator": "EQ",
                                            "Values": [
                                                "ALB"
                                            ]
                                        }
                                    ]
                                },
                                {
                                    "Clause": [
                                        {
                                            "Dataset": "LB",
                                            "Variable": "LBSPEC",
                                            "Codelist Concept ID": "C78734",
                                            "Comparator": "EQ",
                                            "Values": [
                                                "URINE"
                                            ]
                                        }
                                    ]
                                }
                            ]
                        },
                        {
                            "role": "Qualifier",
                            "dataType": "float",
                            "length": 12,
                            "format": "12.4",
                            "significantDigits": 4,
                            "originType": "Collected",
                            "originSource": "Vendor",
                            "WhereClause": [
                                {
                                    "Clause": [
                                        {
                                            "Dataset": "LB",
                                            "Variable": "LBTESTCD",
                                            "Codelist Concept ID": "C65047",
                                            "Comparator": "EQ",
                                            "Values": [
                                                "ALP"
                                            ]
                                        }
                                    ]
                                },
                                {
                                    "Clause": [
                                        {
                                            "Dataset": "LB",
                                            "Variable": "LBSPEC",
                                            "Codelist Concept ID": "C78734",
                                            "Comparator": "EQ",
                                            "Values": [
                                                "SERUM OR PLASMA"
                                            ]
                                        }
                                    ]
                                }
                            ]
                        },
                        {
                            "role": "Qualifier",
                            "dataType": "float",
                            "length": 12,
                            "format": "12.4",
                            "significantDigits": 4,
                            "originType": "Collected",
                            "originSource": "Vendor",
                            "WhereClause": [
                                {
                                    "Clause": [
                                        {
                                            "Dataset": "LB",
                                            "Variable": "LBTESTCD",
                                            "Codelist Concept ID": "C65047",
                                            "Comparator": "EQ",
                                            "Values": [
                                                "AST"
                                            ]
                                        }
                                    ]
                                },
                                {
                                    "Clause": [
                                        {
                                            "Dataset": "LB",
                                            "Variable": "LBSPEC",
                                            "Codelist Concept ID": "C78734",
                                            "Comparator": "EQ",
                                            "Values": [
                                                "SERUM OR PLASMA"
                                            ]
                                        }
                                    ]
                                }
                            ]
                        },
                        {
                            "role": "Qualifier",
                            "dataType": "float",
                            "length": 12,
                            "format": "12.4",
                            "significantDigits": 4,
                            "originType": "Collected",
                            "originSource": "Vendor",
                            "WhereClause": [
                                {
                                    "Clause": [
                                        {
                                            "Dataset": "LB",
                                            "Variable": "LBTESTCD",
                                            "Codelist Concept ID": "C65047",
                                            "Comparator": "EQ",
                                            "Values": [
                                                "CREAT"
                                            ]
                                        }
                                    ]
                                },
                                {
                                    "Clause": [
                                        {
                                            "Dataset": "LB",
                                            "Variable": "LBSPEC",
                                            "Codelist Concept ID": "C78734",
                                            "Comparator": "EQ",
                                            "Values": [
                                                "URINE"
                                            ]
                                        }
                                    ]
                                }
                            ]
                        },
                        {
                            "role": "Qualifier",
                            "dataType": "float",
                            "length": 12,
                            "format": "12.4",
                            "significantDigits": 4,
                            "originType": "Collected",
                            "originSource": "Vendor",
                            "WhereClause": [
                                {
                                    "Clause": [
                                        {
                                            "Dataset": "LB",
                                            "Variable": "LBTESTCD",
                                            "Codelist Concept ID": "C65047",
                                            "Comparator": "EQ",
                                            "Values": [
                                                "K"
                                            ]
                                        }
                                    ]
                                },
                                {
                                    "Clause": [
                                        {
                                            "Dataset": "LB",
                                            "Variable": "LBSPEC",
                                            "Codelist Concept ID": "C78734",
                                            "Comparator": "EQ",
                                            "Values": [
                                                "URINE"
                                            ]
                                        }
                                    ]
                                }
                            ]
                        },
                        {
                            "role": "Qualifier",
                            "dataType": "float",
                            "length": 12,
                            "format": "12.4",
                            "significantDigits": 4,
                            "originType": "Collected",
                            "originSource": "Vendor",
                            "WhereClause": [
                                {
                                    "Clause": [
                                        {
                                            "Dataset": "LB",
                                            "Variable": "LBTESTCD",
                                            "Codelist Concept ID": "C65047",
                                            "Comparator": "EQ",
                                            "Values": [
                                                "SODIUM"
                                            ]
                                        }
                                    ]
                                },
                                {
                                    "Clause": [
                                        {
                                            "Dataset": "LB",
                                            "Variable": "LBSPEC",
                                            "Codelist Concept ID": "C78734",
                                            "Comparator": "EQ",
                                            "Values": [
                                                "URINE"
                                            ]
                                        }
                                    ]
                                }
                            ]
                        }
                    ]
                },
                {
                    "Variable": "LBORRESU",
                    "Label": "Original Units",
                    "Data Type": "Char",
                    "Role": "Variable Qualifier",
                    "CodeList": [
                        "UNIT"
                    ],
                    "VLM": [
                        {
                            "role": "Qualifier",
                            "responseCodes": [
                                "U/L",
                                "ukat/L",
                                "IU/L",
                                "nkat/L"
                            ],
                            "WhereClause": [
                                {
                                    "Clause": [
                                        {
                                            "Dataset": "LB",
                                            "Variable": "LBTESTCD",
                                            "Codelist Concept ID": "C65047",
                                            "Comparator": "EQ",
                                            "Values": [
                                                "ALT"
                                            ]
                                        }
                                    ]
                                },
                                {
                                    "Clause": [
                                        {
                                            "Dataset": "LB",
                                            "Variable": "LBSPEC",
                                            "Codelist Concept ID": "C78734",
                                            "Comparator": "EQ",
                                            "Values": [
                                                "SERUM OR PLASMA"
                                            ]
                                        }
                                    ]
                                }
                            ]
                        },
                        {
                            "role": "Qualifier",
                            "responseCodes": [
                                "U/L",
                                "ukat/L",
                                "IU/L"
                            ],
                            "WhereClause": [
                                {
                                    "Clause": [
                                        {
                                            "Dataset": "LB",
                                            "Variable": "LBTESTCD",
                                            "Codelist Concept ID": "C65047",
                                            "Comparator": "EQ",
                                            "Values": [
                                                "ALP"
                                            ]
                                        }
                                    ]
                                },
                                {
                                    "Clause": [
                                        {
                                            "Dataset": "LB",
                                            "Variable": "LBSPEC",
                                            "Codelist Concept ID": "C78734",
                                            "Comparator": "EQ",
                                            "Values": [
                                                "SERUM OR PLASMA"
                                            ]
                                        }
                                    ]
                                }
                            ]
                        },
                        {
                            "role": "Qualifier",
                            "responseCodes": [
                                "U/L",
                                "ukat/L",
                                "IU/L"
                            ],
                            "WhereClause": [
                                {
                                    "Clause": [
                                        {
                                            "Dataset": "LB",
                                            "Variable": "LBTESTCD",
                                            "Codelist Concept ID": "C65047",
                                            "Comparator": "EQ",
                                            "Values": [
                                                "AST"
                                            ]
                                        }
                                    ]
                                },
                                {
                                    "Clause": [
                                        {
                                            "Dataset": "LB",
                                            "Variable": "LBSPEC",
                                            "Codelist Concept ID": "C78734",
                                            "Comparator": "EQ",
                                            "Values": [
                                                "SERUM OR PLASMA"
                                            ]
                                        }
                                    ]
                                }
                            ]
                        },
                        {
                            "role": "Qualifier",
                            "responseCodes": [
                                "mg/dL",
                                "mg/L",
                                "mmol/L",
                                "umol/L"
                            ],
                            "WhereClause": [
                                {
                                    "Clause": [
                                        {
                                            "Dataset": "LB",
                                            "Variable": "LBTESTCD",
                                            "Codelist Concept ID": "C65047",
                                            "Comparator": "EQ",
                                            "Values": [
                                                "CREAT"
                                            ]
                                        }
                                    ]
                                },
                                {
                                    "Clause": [
                                        {
                                            "Dataset": "LB",
                                            "Variable": "LBSPEC",
                                            "Codelist Concept ID": "C78734",
                                            "Comparator": "EQ",
                                            "Values": [
                                                "URINE"
                                            ]
                                        }
                                    ]
                                }
                            ]
                        },
                        {
                            "role": "Qualifier",
                            "responseCodes": [
                                "mEq/L",
                                "mEq/dL",
                                "mmol/L"
                            ],
                            "WhereClause": [
                                {
                                    "Clause": [
                                        {
                                            "Dataset": "LB",
                                            "Variable": "LBTESTCD",
                                            "Codelist Concept ID": "C65047",
                                            "Comparator": "EQ",
                                            "Values": [
                                                "K"
                                            ]
                                        }
                                    ]
                                },
                                {
                                    "Clause": [
                                        {
                                            "Dataset": "LB",
                                            "Variable": "LBSPEC",
                                            "Codelist Concept ID": "C78734",
                                            "Comparator": "EQ",
                                            "Values": [
                                                "URINE"
                                            ]
                                        }
                                    ]
                                }
                            ]
                        },
                        {
                            "role": "Qualifier",
                            "responseCodes": [
                                "mEq/L",
                                "mEq/dL",
                                "mmol/L"
                            ],
                            "WhereClause": [
                                {
                                    "Clause": [
                                        {
                                            "Dataset": "LB",
                                            "Variable": "LBTESTCD",
                                            "Codelist Concept ID": "C65047",
                                            "Comparator": "EQ",
                                            "Values": [
                                                "SODIUM"
                                            ]
                                        }
                                    ]
                                },
                                {
                                    "Clause": [
                                        {
                                            "Dataset": "LB",
                                            "Variable": "LBSPEC",
                                            "Codelist Concept ID": "C78734",
                                            "Comparator": "EQ",
                                            "Values": [
                                                "URINE"
                                            ]
                                        }
                                    ]
                                }
                            ]
                        },
                        {
                            "role": "Qualifier",
                            "responseCodes": [
                                "g/dL"
                            ],
                            "WhereClause": [
                                {
                                    "Clause": [
                                        {
                                            "Dataset": "LB",
                                            "Variable": "LBTESTCD",
                                            "Codelist Concept ID": "C65047",
                                            "Comparator": "EQ",
                                            "Values": [
                                                "HBA1C"
                                            ]
                                        }
                                    ]
                                },
                                {
                                    "Clause": [
                                        {
                                            "Dataset": "LB",
                                            "Variable": "LBSPEC",
                                            "Codelist Concept ID": "C78734",
                                            "Comparator": "EQ",
                                            "Values": [
                                                "BLOOD"
                                            ]
                                        }
                                    ]
                                }
                            ]
                        },
                        {
                            "role": "Qualifier",
                            "responseCodes": [
                                "U/L",
                                "ukat/L",
                                "IU/L",
                                "nkat/L"
                            ],
                            "WhereClause": [
                                {
                                    "Clause": [
                                        {
                                            "Dataset": "LB",
                                            "Variable": "LBTESTCD",
                                            "Codelist Concept ID": "C65047",
                                            "Comparator": "EQ",
                                            "Values": [
                                                "ALT"
                                            ]
                                        }
                                    ]
                                },
                                {
                                    "Clause": [
                                        {
                                            "Dataset": "LB",
                                            "Variable": "LBSPEC",
                                            "Codelist Concept ID": "C78734",
                                            "Comparator": "EQ",
                                            "Values": [
                                                "SERUM OR PLASMA"
                                            ]
                                        }
                                    ]
                                }
                            ]
                        },
                        {
                            "role": "Qualifier",
                            "responseCodes": [
                                "U/L",
                                "ukat/L",
                                "IU/L"
                            ],
                            "WhereClause": [
                                {
                                    "Clause": [
                                        {
                                            "Dataset": "LB",
                                            "Variable": "LBTESTCD",
                                            "Codelist Concept ID": "C65047",
                                            "Comparator": "EQ",
                                            "Values": [
                                                "ALP"
                                            ]
                                        }
                                    ]
                                },
                                {
                                    "Clause": [
                                        {
                                            "Dataset": "LB",
                                            "Variable": "LBSPEC",
                                            "Codelist Concept ID": "C78734",
                                            "Comparator": "EQ",
                                            "Values": [
                                                "SERUM OR PLASMA"
                                            ]
                                        }
                                    ]
                                }
                            ]
                        },
                        {
                            "role": "Qualifier",
                            "responseCodes": [
                                "U/L",
                                "ukat/L",
                                "IU/L"
                            ],
                            "WhereClause": [
                                {
                                    "Clause": [
                                        {
                                            "Dataset": "LB",
                                            "Variable": "LBTESTCD",
                                            "Codelist Concept ID": "C65047",
                                            "Comparator": "EQ",
                                            "Values": [
                                                "AST"
                                            ]
                                        }
                                    ]
                                },
                                {
                                    "Clause": [
                                        {
                                            "Dataset": "LB",
                                            "Variable": "LBSPEC",
                                            "Codelist Concept ID": "C78734",
                                            "Comparator": "EQ",
                                            "Values": [
                                                "SERUM OR PLASMA"
                                            ]
                                        }
                                    ]
                                }
                            ]
                        },
                        {
                            "role": "Qualifier",
                            "responseCodes": [
                                "mg/dL",
                                "mg/L",
                                "mmol/L",
                                "umol/L"
                            ],
                            "WhereClause": [
                                {
                                    "Clause": [
                                        {
                                            "Dataset": "LB",
                                            "Variable": "LBTESTCD",
                                            "Codelist Concept ID": "C65047",
                                            "Comparator": "EQ",
                                            "Values": [
                                                "CREAT"
                                            ]
                                        }
                                    ]
                                },
                                {
                                    "Clause": [
                                        {
                                            "Dataset": "LB",
                                            "Variable": "LBSPEC",
                                            "Codelist Concept ID": "C78734",
                                            "Comparator": "EQ",
                                            "Values": [
                                                "URINE"
                                            ]
                                        }
                                    ]
                                }
                            ]
                        },
                        {
                            "role": "Qualifier",
                            "responseCodes": [
                                "mEq/L",
                                "mEq/dL",
                                "mmol/L"
                            ],
                            "WhereClause": [
                                {
                                    "Clause": [
                                        {
                                            "Dataset": "LB",
                                            "Variable": "LBTESTCD",
                                            "Codelist Concept ID": "C65047",
                                            "Comparator": "EQ",
                                            "Values": [
                                                "K"
                                            ]
                                        }
                                    ]
                                },
                                {
                                    "Clause": [
                                        {
                                            "Dataset": "LB",
                                            "Variable": "LBSPEC",
                                            "Codelist Concept ID": "C78734",
                                            "Comparator": "EQ",
                                            "Values": [
                                                "URINE"
                                            ]
                                        }
                                    ]
                                }
                            ]
                        },
                        {
                            "role": "Qualifier",
                            "responseCodes": [
                                "mEq/L",
                                "mEq/dL",
                                "mmol/L"
                            ],
                            "WhereClause": [
                                {
                                    "Clause": [
                                        {
                                            "Dataset": "LB",
                                            "Variable": "LBTESTCD",
                                            "Codelist Concept ID": "C65047",
                                            "Comparator": "EQ",
                                            "Values": [
                                                "SODIUM"
                                            ]
                                        }
                                    ]
                                },
                                {
                                    "Clause": [
                                        {
                                            "Dataset": "LB",
                                            "Variable": "LBSPEC",
                                            "Codelist Concept ID": "C78734",
                                            "Comparator": "EQ",
                                            "Values": [
                                                "URINE"
                                            ]
                                        }
                                    ]
                                }
                            ]
                        }
                    ]
                },
                {
                    "Variable": "LBORNRLO",
                    "Label": "Reference Range Lower Limit in Orig Unit",
                    "Data Type": "Char",
                    "Role": "Variable Qualifier"
                },
                {
                    "Variable": "LBORNRHI",
                    "Label": "Reference Range Upper Limit in Orig Unit",
                    "Data Type": "Char",
                    "Role": "Variable Qualifier"
                },
                {
                    "Variable": "LBSTRESC",
                    "Label": "Character Result/Finding in Std Format",
                    "Data Type": "Char",
                    "Role": "Result Qualifier",
                    "CodeList": [
                        "LBSTRESC"
                    ]
                },
                {
                    "Variable": "LBSTRESN",
                    "Label": "Numeric Result/Finding in Standard Units",
                    "Data Type": "Num",
                    "Role": "Result Qualifier"
                },
                {
                    "Variable": "LBSTRESU",
                    "Label": "Standard Units",
                    "Data Type": "Char",
                    "Role": "Variable Qualifier",
                    "CodeList": [
                        "UNIT"
                    ]
                },
                {
                    "Variable": "LBSTNRLO",
                    "Label": "Reference Range Lower Limit-Std Units",
                    "Data Type": "Num",
                    "Role": "Variable Qualifier"
                },
                {
                    "Variable": "LBSTNRHI",
                    "Label": "Reference Range Upper Limit-Std Units",
                    "Data Type": "Num",
                    "Role": "Variable Qualifier"
                },
                {
                    "Variable": "LBNRIND",
                    "Label": "Reference Range Indicator",
                    "Data Type": "Char",
                    "Role": "Variable Qualifier",
                    "CodeList": [
                        "NRIND"
                    ]
                },
                {
                    "Variable": "LBSPEC",
                    "Label": "Specimen Type",
                    "Data Type": "Char",
                    "Role": "Record Qualifier",
                    "CodeList": [
                        "SPECTYPE"
                    ]
                },
                {
                    "Variable": "LBLOBXFL",
                    "Label": "Last Observation Before Exposure Flag",
                    "Data Type": "Char",
                    "Role": "Record Qualifier",
                    "CodeList": [
                        "NY"
                    ]
                },
                {
                    "Variable": "LBFAST",
                    "Label": "Fasting Status",
                    "Data Type": "Char",
                    "Role": "Record Qualifier",
                    "CodeList": [
                        "NY"
                    ]
                },
                {
                    "Variable": "VISITNUM",
                    "Label": "Visit Number",
                    "Data Type": "Num",
                    "Role": "Timing"
                },
                {
                    "Variable": "LBDTC",
                    "Label": "Date/Time of Specimen Collection",
                    "Data Type": "Char",
                    "Role": "Timing"
                }
            ]
        },
        "AE": {
            "Description": "Adverse Events",
            "Class": "Events",
            "Structure": "One record per adverse event per subject",
            "Variables": [
                {
                    "Variable": "STUDYID",
                    "Label": "Study Identifier",
                    "Data Type": "Char",
                    "Role": "Identifier"
                },
                {
                    "Variable": "DOMAIN",
                    "Label": "Domain Abbreviation",
                    "Data Type": "Char",
                    "Role": "Identifier"
                },
                {
                    "Variable": "USUBJID",
                    "Label": "Unique Subject Identifier",
                    "Data Type": "Char",
                    "Role": "Identifier"
                },
                {
                    "Variable": "AESEQ",
                    "Label": "Sequence Number",
                    "Data Type": "Num",
                    "Role": "Identifier"
                },
                {
                    "Variable": "AETERM",
                    "Label": "Reported Term for the Adverse Event",
                    "Data Type": "Char",
                    "Role": "Topic"
                },
                {
                    "Variable": "AELLT",
                    "Label": "Lowest Level Term",
                    "Data Type": "Char",
                    "Role": "Variable Qualifier"
                },
                {
                    "Variable": "AELLTCD",
                    "Label": "Lowest Level Term Code",
                    "Data Type": "Num",
                    "Role": "Variable Qualifier"
                },
                {
                    "Variable": "AEDECOD",
                    "Label": "Dictionary-Derived Term",
                    "Data Type": "Char",
                    "Role": "Synonym Qualifier"
                },
                {
                    "Variable": "AEPTCD",
                    "Label": "Preferred Term Code",
                    "Data Type": "Num",
                    "Role": "Variable Qualifier"
                },
                {
                    "Variable": "AEHLT",
                    "Label": "High Level Term",
                    "Data Type": "Char",
                    "Role": "Variable Qualifier"
                },
                {
                    "Variable": "AEHLTCD",
                    "Label": "High Level Term Code",
                    "Data Type": "Num",
                    "Role": "Variable Qualifier"
                },
                {
                    "Variable": "AEHLGT",
                    "Label": "High Level Group Term",
                    "Data Type": "Char",
                    "Role": "Variable Qualifier"
                },
                {
                    "Variable": "AEHLGTCD",
                    "Label": "High Level Group Term Code",
                    "Data Type": "Num",
                    "Role": "Variable Qualifier"
                },
                {
                    "Variable": "AECAT",
                    "Label": "Category for Adverse Event",
                    "Data Type": "Char",
                    "Role": "Grouping Qualifier"
                },
                {
                    "Variable": "AESCAT",
                    "Label": "Subcategory for Adverse Event",
                    "Data Type": "Char",
                    "Role": "Grouping Qualifier"
                },
                {
                    "Variable": "AEPRESP",
                    "Label": "Pre-Specified Adverse Event",
                    "Data Type": "Char",
                    "Role": "Variable Qualifier",
                    "CodeList": [
                        "NY"
                    ]
                },
                {
                    "Variable": "AEBODSYS",
                    "Label": "Body System or Organ Class",
                    "Data Type": "Char",
                    "Role": "Record Qualifier"
                },
                {
                    "Variable": "AEBDSYCD",
                    "Label": "Body System or Organ Class Code",
                    "Data Type": "Num",
                    "Role": "Variable Qualifier"
                },
                {
                    "Variable": "AESOC",
                    "Label": "Primary System Organ Class",
                    "Data Type": "Char",
                    "Role": "Variable Qualifier"
                },
                {
                    "Variable": "AESOCCD",
                    "Label": "Primary System Organ Class Code",
                    "Data Type": "Num",
                    "Role": "Variable Qualifier"
                },
                {
                    "Variable": "AELOC",
                    "Label": "Location of Event",
                    "Data Type": "Char",
                    "Role": "Record Qualifier",
                    "CodeList": [
                        "LOC"
                    ]
                },
                {
                    "Variable": "AESEV",
                    "Label": "Severity/Intensity",
                    "Data Type": "Char",
                    "Role": "Record Qualifier",
                    "CodeList": [
                        "AESEV"
                    ]
                },
                {
                    "Variable": "AESER",
                    "Label": "Serious Event",
                    "Data Type": "Char",
                    "Role": "Record Qualifier",
                    "CodeList": [
                        "NY"
                    ]
                },
                {
                    "Variable": "AEACN",
                    "Label": "Action Taken with Study Treatment",
                    "Data Type": "Char",
                    "Role": "Record Qualifier",
                    "CodeList": [
                        "ACN"
                    ]
                },
                {
                    "Variable": "AEACNOTH",
                    "Label": "Other Action Taken",
                    "Data Type": "Char",
                    "Role": "Record Qualifier"
                },
                {
                    "Variable": "AEREL",
                    "Label": "Causality",
                    "Data Type": "Char",
                    "Role": "Record Qualifier"
                },
                {
                    "Variable": "AERELNST",
                    "Label": "Relationship to Non-Study Treatment",
                    "Data Type": "Char",
                    "Role": "Record Qualifier"
                },
                {
                    "Variable": "AEPATT",
                    "Label": "Pattern of Adverse Event",
                    "Data Type": "Char",
                    "Role": "Record Qualifier"
                },
                {
                    "Variable": "AEOUT",
                    "Label": "Outcome of Adverse Event",
                    "Data Type": "Char",
                    "Role": "Record Qualifier",
                    "CodeList": [
                        "OUT"
                    ]
                },
                {
                    "Variable": "AESCAN",
                    "Label": "Involves Cancer",
                    "Data Type": "Char",
                    "Role": "Record Qualifier",
                    "CodeList": [
                        "NY"
                    ]
                },
                {
                    "Variable": "AESCONG",
                    "Label": "Congenital Anomaly or Birth Defect",
                    "Data Type": "Char",
                    "Role": "Record Qualifier",
                    "CodeList": [
                        "NY"
                    ]
                },
                {
                    "Variable": "AESDISAB",
                    "Label": "Persist or Signif Disability/Incapacity",
                    "Data Type": "Char",
                    "Role": "Record Qualifier",
                    "CodeList": [
                        "NY"
                    ]
                },
                {
                    "Variable": "AESDTH",
                    "Label": "Results in Death",
                    "Data Type": "Char",
                    "Role": "Record Qualifier",
                    "CodeList": [
                        "NY"
                    ]
                },
                {
                    "Variable": "AESHOSP",
                    "Label": "Requires or Prolongs Hospitalization",
                    "Data Type": "Char",
                    "Role": "Record Qualifier",
                    "CodeList": [
                        "NY"
                    ]
                },
                {
                    "Variable": "AESLIFE",
                    "Label": "Is Life Threatening",
                    "Data Type": "Char",
                    "Role": "Record Qualifier",
                    "CodeList": [
                        "NY"
                    ]
                },
                {
                    "Variable": "AESOD",
                    "Label": "Occurred with Overdose",
                    "Data Type": "Char",
                    "Role": "Record Qualifier",
                    "CodeList": [
                        "NY"
                    ]
                },
                {
                    "Variable": "AESMIE",
                    "Label": "Other Medically Important Serious Event",
                    "Data Type": "Char",
                    "Role": "Record Qualifier",
                    "CodeList": [
                        "NY"
                    ]
                },
                {
                    "Variable": "AECONTRT",
                    "Label": "Concomitant or Additional Trtmnt Given",
                    "Data Type": "Char",
                    "Role": "Record Qualifier",
                    "CodeList": [
                        "NY"
                    ]
                },
                {
                    "Variable": "AETOXGR",
                    "Label": "Standard Toxicity Grade",
                    "Data Type": "Char",
                    "Role": "Record Qualifier"
                },
                {
                    "Variable": "AESTDTC",
                    "Label": "Start Date/Time of Adverse Event",
                    "Data Type": "Char",
                    "Role": "Timing"
                },
                {
                    "Variable": "AEENDTC",
                    "Label": "End Date/Time of Adverse Event",
                    "Data Type": "Char",
                    "Role": "Timing"
                },
                {
                    "Variable": "AEENRF",
                    "Label": "End Relative to Reference Period",
                    "Data Type": "Char",
                    "Role": "Timing",
                    "CodeList": [
                        "STENRF"
                    ]
                },
                {
                    "Variable": "AEENRTPT",
                    "Label": "End Relative to Reference Time Point",
                    "Data Type": "Char",
                    "Role": "Timing",
                    "CodeList": [
                        "STENRF"
                    ]
                },
                {
                    "Variable": "AEENTPT",
                    "Label": "End Reference Time Point",
                    "Data Type": "Char",
                    "Role": "Timing"
                }
            ]
        }
    },
    "CodeLists": [
        {
            "Dataset": "DM",
            "Variable": "DTHFL",
            "CodeList": [
                {
                    "NCI Codelist Code": "C66742",
                    "Name": "No Yes Response",
                    "Short Name": "NY",
                    "Terms": [
                        {
                            "NCI Term Code": "C49487",
                            "Term": "N",
                            "Decoded Value": [
                                "No"
                            ]
                        },
                        {
                            "NCI Term Code": "C48660",
                            "Term": "NA",
                            "Decoded Value": [
                                "NA",
                                "Not Applicable"
                            ]
                        },
                        {
                            "NCI Term Code": "C17998",
                            "Term": "U",
                            "Decoded Value": [
                                "U",
                                "UNK",
                                "Unknown"
                            ]
                        },
                        {
                            "NCI Term Code": "C49488",
                            "Term": "Y",
                            "Decoded Value": [
                                "Yes"
                            ]
                        }
                    ]
                }
            ]
        },
        {
            "Dataset": "DM",
            "Variable": "AGEU",
            "CodeList": [
                {
                    "NCI Codelist Code": "C66781",
                    "Name": "Age Unit",
                    "Short Name": "AGEU",
                    "Terms": [
                        {
                            "NCI Term Code": "C25301",
                            "Term": "DAYS",
                            "Decoded Value": []
                        },
                        {
                            "NCI Term Code": "C25529",
                            "Term": "HOURS",
                            "Decoded Value": [
                                "h",
                                "Hours",
                                "hr"
                            ]
                        },
                        {
                            "NCI Term Code": "C29846",
                            "Term": "MONTHS",
                            "Decoded Value": [
                                "Month"
                            ]
                        },
                        {
                            "NCI Term Code": "C29844",
                            "Term": "WEEKS",
                            "Decoded Value": [
                                "Week"
                            ]
                        },
                        {
                            "NCI Term Code": "C29848",
                            "Term": "YEARS",
                            "Decoded Value": [
                                "Year"
                            ]
                        }
                    ]
                }
            ]
        },
        {
            "Dataset": "DM",
            "Variable": "SEX",
            "CodeList": [
                {
                    "NCI Codelist Code": "C66731",
                    "Name": "Sex",
                    "Short Name": "SEX",
                    "Terms": [
                        {
                            "NCI Term Code": "C16576",
                            "Term": "F",
                            "Decoded Value": [
                                "Female"
                            ]
                        },
                        {
                            "NCI Term Code": "C20197",
                            "Term": "M",
                            "Decoded Value": [
                                "Male"
                            ]
                        }
                    ]
                }
            ]
        },
        {
            "Dataset": "DM",
            "Variable": "RACE",
            "CodeList": [
                {
                    "NCI Codelist Code": "C74457",
                    "Name": "Race",
                    "Short Name": "RACE",
                    "Terms": [
                        {
                            "NCI Term Code": "C41259",
                            "Term": "AMERICAN INDIAN OR ALASKA NATIVE",
                            "Decoded Value": []
                        },
                        {
                            "NCI Term Code": "C41260",
                            "Term": "ASIAN",
                            "Decoded Value": []
                        },
                        {
                            "NCI Term Code": "C16352",
                            "Term": "BLACK OR AFRICAN AMERICAN",
                            "Decoded Value": []
                        },
                        {
                            "NCI Term Code": "C41219",
                            "Term": "NATIVE HAWAIIAN OR OTHER PACIFIC ISLANDER",
                            "Decoded Value": []
                        },
                        {
                            "NCI Term Code": "C43234",
                            "Term": "NOT REPORTED",
                            "Decoded Value": [
                                "Not reported"
                            ]
                        },
                        {
                            "NCI Term Code": "C17649",
                            "Term": "OTHER",
                            "Decoded Value": [
                                "Other"
                            ]
                        },
                        {
                            "NCI Term Code": "C17998",
                            "Term": "UNKNOWN",
                            "Decoded Value": [
                                "U",
                                "UNK",
                                "Unknown"
                            ]
                        },
                        {
                            "NCI Term Code": "C41261",
                            "Term": "WHITE",
                            "Decoded Value": []
                        }
                    ]
                }
            ]
        },
        {
            "Dataset": "DM",
            "Variable": "ARMNRS",
            "CodeList": [
                {
                    "NCI Codelist Code": "C142179",
                    "Name": "Arm Null Reason",
                    "Short Name": "ARMNULRS",
                    "Terms": [
                        {
                            "NCI Term Code": "C142238",
                            "Term": "ASSIGNED, NOT TREATED",
                            "Decoded Value": []
                        },
                        {
                            "NCI Term Code": "C142239",
                            "Term": "NOT ASSIGNED",
                            "Decoded Value": []
                        },
                        {
                            "NCI Term Code": "C49628",
                            "Term": "SCREEN FAILURE",
                            "Decoded Value": [
                                "Failure to Meet Inclusion/Exclusion Criteria"
                            ]
                        },
                        {
                            "NCI Term Code": "C142240",
                            "Term": "UNPLANNED TREATMENT",
                            "Decoded Value": []
                        }
                    ]
                }
            ]
        },
        {
            "Dataset": "VS",
            "Variable": "VSTESTCD",
            "CodeList": [
                {
                    "NCI Codelist Code": "C66741",
                    "Name": "Vital Signs Test Code",
                    "Short Name": "VSTESTCD",
                    "Terms": [
                        {
                            "NCI Term Code": "C25299",
                            "Term": "DIABP",
                            "Decoded Value": [
                                "Diastolic Blood Pressure"
                            ]
                        },
                        {
                            "NCI Term Code": "C25347",
                            "Term": "HEIGHT",
                            "Decoded Value": [
                                "Height"
                            ]
                        },
                        {
                            "NCI Term Code": "C49677",
                            "Term": "HR",
                            "Decoded Value": [
                                "Heart Rate"
                            ]
                        },
                        {
                            "NCI Term Code": "C25298",
                            "Term": "SYSBP",
                            "Decoded Value": [
                                "Systolic Blood Pressure"
                            ]
                        },
                        {
                            "NCI Term Code": "C174446",
                            "Term": "TEMP",
                            "Decoded Value": [
                                "Body Temperature",
                                "Temperature"
                            ]
                        },
                        {
                            "NCI Term Code": "C25208",
                            "Term": "WEIGHT",
                            "Decoded Value": [
                                "Weight"
                            ]
                        }
                    ]
                }
            ]
        },
        {
            "Dataset": "VS",
            "Variable": "VSTEST",
            "CodeList": [
                {
                    "NCI Codelist Code": "C67153",
                    "Name": "Vital Signs Test Name",
                    "Short Name": "VSTEST",
                    "Terms": [
                        {
                            "NCI Term Code": "C25299",
                            "Term": "Diastolic Blood Pressure",
                            "Decoded Value": [
                                "Diastolic Blood Pressure"
                            ]
                        },
                        {
                            "NCI Term Code": "C49677",
                            "Term": "Heart Rate",
                            "Decoded Value": [
                                "Heart Rate"
                            ]
                        },
                        {
                            "NCI Term Code": "C25347",
                            "Term": "Height",
                            "Decoded Value": [
                                "Height"
                            ]
                        },
                        {
                            "NCI Term Code": "C25298",
                            "Term": "Systolic Blood Pressure",
                            "Decoded Value": [
                                "Systolic Blood Pressure"
                            ]
                        },
                        {
                            "NCI Term Code": "C174446",
                            "Term": "Temperature",
                            "Decoded Value": [
                                "Body Temperature",
                                "Temperature"
                            ]
                        },
                        {
                            "NCI Term Code": "C25208",
                            "Term": "Weight",
                            "Decoded Value": [
                                "Weight"
                            ]
                        }
                    ]
                }
            ]
        },
        {
            "Dataset": "VS",
            "Variable": "VSPOS",
            "CodeList": [
                {
                    "NCI Codelist Code": "C71148",
                    "Name": "Position",
                    "Short Name": "POSITION",
                    "Terms": [
                        {
                            "NCI Term Code": "C62165",
                            "Term": "PRONE",
                            "Decoded Value": [
                                "Prone"
                            ]
                        },
                        {
                            "NCI Term Code": "C111310",
                            "Term": "SEMI-RECUMBENT",
                            "Decoded Value": [
                                "Semi-Supine"
                            ]
                        },
                        {
                            "NCI Term Code": "C62122",
                            "Term": "SITTING",
                            "Decoded Value": [
                                "Sitting"
                            ]
                        },
                        {
                            "NCI Term Code": "C62166",
                            "Term": "STANDING",
                            "Decoded Value": [
                                "Orthostatic",
                                "Standing"
                            ]
                        },
                        {
                            "NCI Term Code": "C62167",
                            "Term": "SUPINE",
                            "Decoded Value": [
                                "Supine"
                            ]
                        }
                    ]
                }
            ]
        },
        {
            "Dataset": "VS",
            "Variable": "VSORRESU",
            "CodeList": [
                {
                    "NCI Codelist Code": "C66770",
                    "Name": "Units for Vital Signs Results",
                    "Short Name": "VSRESU",
                    "Terms": [
                        {
                            "NCI Term Code": "C42559",
                            "Term": "C",
                            "Decoded Value": [
                                "Degree Celsius"
                            ]
                        },
                        {
                            "NCI Term Code": "C49668",
                            "Term": "cm",
                            "Decoded Value": [
                                "Centimeter"
                            ]
                        },
                        {
                            "NCI Term Code": "C44277",
                            "Term": "F",
                            "Decoded Value": [
                                "Degree Fahrenheit"
                            ]
                        },
                        {
                            "NCI Term Code": "C48155",
                            "Term": "g",
                            "Decoded Value": [
                                "Gram"
                            ]
                        },
                        {
                            "NCI Term Code": "C48500",
                            "Term": "in",
                            "Decoded Value": [
                                "Inch"
                            ]
                        },
                        {
                            "NCI Term Code": "C42537",
                            "Term": "K",
                            "Decoded Value": [
                                "Kelvin"
                            ]
                        },
                        {
                            "NCI Term Code": "C28252",
                            "Term": "kg",
                            "Decoded Value": [
                                "Kilogram"
                            ]
                        },
                        {
                            "NCI Term Code": "C48531",
                            "Term": "LB",
                            "Decoded Value": [
                                "lb",
                                "lb_av",
                                "Pound"
                            ]
                        },
                        {
                            "NCI Term Code": "C41139",
                            "Term": "m",
                            "Decoded Value": [
                                "Meter"
                            ]
                        }
                    ]
                }
            ]
        },
        {
            "Dataset": "VS",
            "Variable": "VSSTRESU",
            "CodeList": [
                {
                    "NCI Codelist Code": "C66770",
                    "Name": "Units for Vital Signs Results",
                    "Short Name": "VSRESU",
                    "Terms": [
                        {
                            "NCI Term Code": "C42559",
                            "Term": "C",
                            "Decoded Value": [
                                "Degree Celsius"
                            ]
                        },
                        {
                            "NCI Term Code": "C49668",
                            "Term": "cm",
                            "Decoded Value": [
                                "Centimeter"
                            ]
                        },
                        {
                            "NCI Term Code": "C44277",
                            "Term": "F",
                            "Decoded Value": [
                                "Degree Fahrenheit"
                            ]
                        },
                        {
                            "NCI Term Code": "C48155",
                            "Term": "g",
                            "Decoded Value": [
                                "Gram"
                            ]
                        },
                        {
                            "NCI Term Code": "C48500",
                            "Term": "in",
                            "Decoded Value": [
                                "Inch"
                            ]
                        },
                        {
                            "NCI Term Code": "C42537",
                            "Term": "K",
                            "Decoded Value": [
                                "Kelvin"
                            ]
                        },
                        {
                            "NCI Term Code": "C28252",
                            "Term": "kg",
                            "Decoded Value": [
                                "Kilogram"
                            ]
                        },
                        {
                            "NCI Term Code": "C48531",
                            "Term": "LB",
                            "Decoded Value": [
                                "lb",
                                "lb_av",
                                "Pound"
                            ]
                        },
                        {
                            "NCI Term Code": "C41139",
                            "Term": "m",
                            "Decoded Value": [
                                "Meter"
                            ]
                        }
                    ]
                }
            ]
        },
        {
            "Dataset": "VS",
            "Variable": "VSLOC",
            "CodeList": [
                {
                    "NCI Codelist Code": "C74456",
                    "Name": "Anatomical Location",
                    "Short Name": "LOC",
                    "Terms": [
                        {
                            "NCI Term Code": "C12674",
                            "Term": "AXILLA",
                            "Decoded Value": [
                                "Armpit",
                                "Axilla"
                            ]
                        },
                        {
                            "NCI Term Code": "C12681",
                            "Term": "BRACHIAL ARTERY",
                            "Decoded Value": []
                        },
                        {
                            "NCI Term Code": "C12687",
                            "Term": "CAROTID ARTERY",
                            "Decoded Value": [
                                "Common Carotid Artery"
                            ]
                        },
                        {
                            "NCI Term Code": "C12691",
                            "Term": "CEREBRAL ARTERY",
                            "Decoded Value": []
                        },
                        {
                            "NCI Term Code": "C32478",
                            "Term": "DORSALIS PEDIS ARTERY",
                            "Decoded Value": [
                                "Dorsal Pedal Artery",
                                "Dorsalis Pedis Artery"
                            ]
                        },
                        {
                            "NCI Term Code": "C12394",
                            "Term": "EAR",
                            "Decoded Value": []
                        },
                        {
                            "NCI Term Code": "C12715",
                            "Term": "FEMORAL ARTERY",
                            "Decoded Value": []
                        },
                        {
                            "NCI Term Code": "C32608",
                            "Term": "FINGER",
                            "Decoded Value": [
                                "Finger"
                            ]
                        },
                        {
                            "NCI Term Code": "C89803",
                            "Term": "FOREHEAD",
                            "Decoded Value": [
                                "Forehead"
                            ]
                        },
                        {
                            "NCI Term Code": "C12421",
                            "Term": "ORAL CAVITY",
                            "Decoded Value": [
                                "Buccal cavity",
                                "Mouth"
                            ]
                        },
                        {
                            "NCI Term Code": "C12838",
                            "Term": "RADIAL ARTERY",
                            "Decoded Value": [
                                "Radial Artery"
                            ]
                        },
                        {
                            "NCI Term Code": "C12390",
                            "Term": "RECTUM",
                            "Decoded Value": []
                        }
                    ]
                }
            ]
        },
        {
            "Dataset": "VS",
            "Variable": "VSLAT",
            "CodeList": [
                {
                    "NCI Codelist Code": "C99073",
                    "Name": "Laterality",
                    "Short Name": "LAT",
                    "Terms": [
                        {
                            "NCI Term Code": "C25229",
                            "Term": "LEFT",
                            "Decoded Value": []
                        },
                        {
                            "NCI Term Code": "C25228",
                            "Term": "RIGHT",
                            "Decoded Value": []
                        }
                    ]
                }
            ]
        },
        {
            "Dataset": "VS",
            "Variable": "VSLOBXFL",
            "CodeList": [
                {
                    "NCI Codelist Code": "C66742",
                    "Name": "No Yes Response",
                    "Short Name": "NY",
                    "Terms": [
                        {
                            "NCI Term Code": "C49487",
                            "Term": "N",
                            "Decoded Value": [
                                "No"
                            ]
                        },
                        {
                            "NCI Term Code": "C48660",
                            "Term": "NA",
                            "Decoded Value": [
                                "NA",
                                "Not Applicable"
                            ]
                        },
                        {
                            "NCI Term Code": "C17998",
                            "Term": "U",
                            "Decoded Value": [
                                "U",
                                "UNK",
                                "Unknown"
                            ]
                        },
                        {
                            "NCI Term Code": "C49488",
                            "Term": "Y",
                            "Decoded Value": [
                                "Yes"
                            ]
                        }
                    ]
                }
            ]
        },
        {
            "Dataset": "LB",
            "Variable": "LBTESTCD",
            "CodeList": [
                {
                    "NCI Codelist Code": "C65047",
                    "Name": "Laboratory Test Code",
                    "Short Name": "LBTESTCD",
                    "Terms": [
                        {
                            "NCI Term Code": "C64431",
                            "Term": "ALB",
                            "Decoded Value": [
                                "Albumin",
                                "Microalbumin"
                            ]
                        },
                        {
                            "NCI Term Code": "C64432",
                            "Term": "ALP",
                            "Decoded Value": [
                                "Alkaline Phosphatase"
                            ]
                        },
                        {
                            "NCI Term Code": "C64433",
                            "Term": "ALT",
                            "Decoded Value": [
                                "Alanine Aminotransferase",
                                "SGPT"
                            ]
                        },
                        {
                            "NCI Term Code": "C64467",
                            "Term": "AST",
                            "Decoded Value": [
                                "Aspartate Aminotransferase",
                                "SGOT"
                            ]
                        },
                        {
                            "NCI Term Code": "C64547",
                            "Term": "CREAT",
                            "Decoded Value": [
                                "Creatinine"
                            ]
                        },
                        {
                            "NCI Term Code": "C64849",
                            "Term": "HBA1C",
                            "Decoded Value": [
                                "HbA1c",
                                "Hemoglobin A1C"
                            ]
                        },
                        {
                            "NCI Term Code": "C64853",
                            "Term": "K",
                            "Decoded Value": [
                                "Potassium"
                            ]
                        },
                        {
                            "NCI Term Code": "C64809",
                            "Term": "SODIUM",
                            "Decoded Value": [
                                "Sodium"
                            ]
                        }
                    ]
                }
            ]
        },
        {
            "Dataset": "LB",
            "Variable": "LBTEST",
            "CodeList": [
                {
                    "NCI Codelist Code": "C67154",
                    "Name": "Laboratory Test Name",
                    "Short Name": "LBTEST",
                    "Terms": [
                        {
                            "NCI Term Code": "C64433",
                            "Term": "Alanine Aminotransferase",
                            "Decoded Value": [
                                "Alanine Aminotransferase",
                                "SGPT"
                            ]
                        },
                        {
                            "NCI Term Code": "C64431",
                            "Term": "Albumin",
                            "Decoded Value": [
                                "Albumin",
                                "Microalbumin"
                            ]
                        },
                        {
                            "NCI Term Code": "C64432",
                            "Term": "Alkaline Phosphatase",
                            "Decoded Value": [
                                "Alkaline Phosphatase"
                            ]
                        },
                        {
                            "NCI Term Code": "C64467",
                            "Term": "Aspartate Aminotransferase",
                            "Decoded Value": [
                                "Aspartate Aminotransferase",
                                "SGOT"
                            ]
                        },
                        {
                            "NCI Term Code": "C64547",
                            "Term": "Creatinine",
                            "Decoded Value": [
                                "Creatinine"
                            ]
                        },
                        {
                            "NCI Term Code": "C64849",
                            "Term": "Hemoglobin A1C",
                            "Decoded Value": [
                                "HbA1c",
                                "Hemoglobin A1C"
                            ]
                        },
                        {
                            "NCI Term Code": "C64853",
                            "Term": "Potassium",
                            "Decoded Value": [
                                "Potassium"
                            ]
                        },
                        {
                            "NCI Term Code": "C64809",
                            "Term": "Sodium",
                            "Decoded Value": [
                                "Sodium"
                            ]
                        }
                    ]
                }
            ]
        },
        {
            "Dataset": "LB",
            "Variable": "LBORRESU",
            "CodeList": [
                {
                    "NCI Codelist Code": "C71620",
                    "Name": "Unit",
                    "Short Name": "UNIT",
                    "Terms": [
                        {
                            "NCI Term Code": "C67376",
                            "Term": "IU/L",
                            "Decoded Value": [
                                "IE/L",
                                "International Unit per Liter",
                                "IU/L",
                                "mIU/mL"
                            ]
                        },
                        {
                            "NCI Term Code": "C67473",
                            "Term": "mEq/dL",
                            "Decoded Value": [
                                "Milliequivalent per Deciliter"
                            ]
                        },
                        {
                            "NCI Term Code": "C67474",
                            "Term": "mEq/L",
                            "Decoded Value": [
                                "Milliequivalent Per Liter",
                                "Millivalent per Liter",
                                "mval/L"
                            ]
                        },
                        {
                            "NCI Term Code": "C67015",
                            "Term": "mg/dL",
                            "Decoded Value": [
                                "mg%",
                                "Milligram per Deciliter"
                            ]
                        },
                        {
                            "NCI Term Code": "C64572",
                            "Term": "mg/L",
                            "Decoded Value": [
                                "g/m3",
                                "Gram per Cubic Meter",
                                "mcg/mL",
                                "mg/L",
                                "Microgram per Milliliter",
                                "Milligram per Liter",
                                "ng/uL",
                                "ug/mL"
                            ]
                        },
                        {
                            "NCI Term Code": "C64387",
                            "Term": "mmol/L",
                            "Decoded Value": [
                                "mcmol/mL",
                                "Micromole per Milliliter",
                                "Millimole per Liter",
                                "mmol/L",
                                "mol/m3",
                                "Mole per Cubic Meter",
                                "nmol/uL",
                                "umol/mL"
                            ]
                        },
                        {
                            "NCI Term Code": "C70510",
                            "Term": "nkat/L",
                            "Decoded Value": [
                                "Nanokatal per Liter"
                            ]
                        },
                        {
                            "NCI Term Code": "C67456",
                            "Term": "U/L",
                            "Decoded Value": [
                                "mU/mL",
                                "Unit per Liter"
                            ]
                        },
                        {
                            "NCI Term Code": "C67397",
                            "Term": "ukat/L",
                            "Decoded Value": [
                                "mckat/L",
                                "Microkatal per Liter"
                            ]
                        },
                        {
                            "NCI Term Code": "C48508",
                            "Term": "umol/L",
                            "Decoded Value": [
                                "nmol/mL"
                            ]
                        }
                    ]
                }
            ]
        },
        {
            "Dataset": "LB",
            "Variable": "LBSTRESC",
            "CodeList": [
                {
                    "NCI Codelist Code": "C102580",
                    "Name": "Laboratory Test Standard Character Result",
                    "Short Name": "LBSTRESC",
                    "Terms": [
                        {
                            "NCI Term Code": "C25401",
                            "Term": "ABNORMAL",
                            "Decoded Value": []
                        },
                        {
                            "NCI Term Code": "C48190",
                            "Term": "ABSENT",
                            "Decoded Value": []
                        },
                        {
                            "NCI Term Code": "C14157",
                            "Term": "BORDERLINE",
                            "Decoded Value": []
                        },
                        {
                            "NCI Term Code": "C191719",
                            "Term": "DETECTED",
                            "Decoded Value": []
                        },
                        {
                            "NCI Term Code": "C48658",
                            "Term": "INDETERMINATE",
                            "Decoded Value": [
                                "Inconclusive"
                            ]
                        },
                        {
                            "NCI Term Code": "C38757",
                            "Term": "NEGATIVE",
                            "Decoded Value": []
                        },
                        {
                            "NCI Term Code": "C14165",
                            "Term": "NORMAL",
                            "Decoded Value": []
                        },
                        {
                            "NCI Term Code": "C191300",
                            "Term": "NOT DETECTED",
                            "Decoded Value": []
                        },
                        {
                            "NCI Term Code": "C38758",
                            "Term": "POSITIVE",
                            "Decoded Value": []
                        },
                        {
                            "NCI Term Code": "C25626",
                            "Term": "PRESENT",
                            "Decoded Value": []
                        },
                        {
                            "NCI Term Code": "C191301",
                            "Term": "STRONGLY POSITIVE",
                            "Decoded Value": []
                        },
                        {
                            "NCI Term Code": "C191303",
                            "Term": "TOO NUMEROUS TO COUNT",
                            "Decoded Value": [
                                "TNTC"
                            ]
                        },
                        {
                            "NCI Term Code": "C80218",
                            "Term": "TRACE",
                            "Decoded Value": []
                        },
                        {
                            "NCI Term Code": "C191302",
                            "Term": "WEAKLY POSITIVE",
                            "Decoded Value": []
                        }
                    ]
                }
            ]
        },
        {
            "Dataset": "LB",
            "Variable": "LBSTRESU",
            "CodeList": [
                {
                    "NCI Codelist Code": "C71620",
                    "Name": "Unit",
                    "Short Name": "UNIT",
                    "Terms": [
                        {
                            "NCI Term Code": "C67376",
                            "Term": "IU/L",
                            "Decoded Value": [
                                "IE/L",
                                "International Unit per Liter",
                                "IU/L",
                                "mIU/mL"
                            ]
                        },
                        {
                            "NCI Term Code": "C67473",
                            "Term": "mEq/dL",
                            "Decoded Value": [
                                "Milliequivalent per Deciliter"
                            ]
                        },
                        {
                            "NCI Term Code": "C67474",
                            "Term": "mEq/L",
                            "Decoded Value": [
                                "Milliequivalent Per Liter",
                                "Millivalent per Liter",
                                "mval/L"
                            ]
                        },
                        {
                            "NCI Term Code": "C67015",
                            "Term": "mg/dL",
                            "Decoded Value": [
                                "mg%",
                                "Milligram per Deciliter"
                            ]
                        },
                        {
                            "NCI Term Code": "C64572",
                            "Term": "mg/L",
                            "Decoded Value": [
                                "g/m3",
                                "Gram per Cubic Meter",
                                "mcg/mL",
                                "mg/L",
                                "Microgram per Milliliter",
                                "Milligram per Liter",
                                "ng/uL",
                                "ug/mL"
                            ]
                        },
                        {
                            "NCI Term Code": "C64387",
                            "Term": "mmol/L",
                            "Decoded Value": [
                                "mcmol/mL",
                                "Micromole per Milliliter",
                                "Millimole per Liter",
                                "mmol/L",
                                "mol/m3",
                                "Mole per Cubic Meter",
                                "nmol/uL",
                                "umol/mL"
                            ]
                        },
                        {
                            "NCI Term Code": "C70510",
                            "Term": "nkat/L",
                            "Decoded Value": [
                                "Nanokatal per Liter"
                            ]
                        },
                        {
                            "NCI Term Code": "C67456",
                            "Term": "U/L",
                            "Decoded Value": [
                                "mU/mL",
                                "Unit per Liter"
                            ]
                        },
                        {
                            "NCI Term Code": "C67397",
                            "Term": "ukat/L",
                            "Decoded Value": [
                                "mckat/L",
                                "Microkatal per Liter"
                            ]
                        },
                        {
                            "NCI Term Code": "C48508",
                            "Term": "umol/L",
                            "Decoded Value": [
                                "nmol/mL"
                            ]
                        }
                    ]
                }
            ]
        },
        {
            "Dataset": "LB",
            "Variable": "LBNRIND",
            "CodeList": [
                {
                    "NCI Codelist Code": "C78736",
                    "Name": "Reference Range Indicator",
                    "Short Name": "NRIND",
                    "Terms": [
                        {
                            "NCI Term Code": "C78802",
                            "Term": "ABNORMAL",
                            "Decoded Value": []
                        },
                        {
                            "NCI Term Code": "C78800",
                            "Term": "HIGH",
                            "Decoded Value": []
                        },
                        {
                            "NCI Term Code": "C78801",
                            "Term": "LOW",
                            "Decoded Value": []
                        },
                        {
                            "NCI Term Code": "C78727",
                            "Term": "NORMAL",
                            "Decoded Value": []
                        }
                    ]
                }
            ]
        },
        {
            "Dataset": "LB",
            "Variable": "LBSPEC",
            "CodeList": [
                {
                    "NCI Codelist Code": "C78734",
                    "Name": "Specimen Type",
                    "Short Name": "SPECTYPE",
                    "Terms": [
                        {
                            "NCI Term Code": "C12434",
                            "Term": "BLOOD",
                            "Decoded Value": [
                                "Peripheral Blood",
                                "Whole Blood"
                            ]
                        },
                        {
                            "NCI Term Code": "C105706",
                            "Term": "SERUM OR PLASMA",
                            "Decoded Value": [
                                "Ser/Plas"
                            ]
                        },
                        {
                            "NCI Term Code": "C13283",
                            "Term": "URINE",
                            "Decoded Value": []
                        }
                    ]
                }
            ]
        },
        {
            "Dataset": "LB",
            "Variable": "LBLOBXFL",
            "CodeList": [
                {
                    "NCI Codelist Code": "C66742",
                    "Name": "No Yes Response",
                    "Short Name": "NY",
                    "Terms": [
                        {
                            "NCI Term Code": "C49487",
                            "Term": "N",
                            "Decoded Value": [
                                "No"
                            ]
                        },
                        {
                            "NCI Term Code": "C48660",
                            "Term": "NA",
                            "Decoded Value": [
                                "NA",
                                "Not Applicable"
                            ]
                        },
                        {
                            "NCI Term Code": "C17998",
                            "Term": "U",
                            "Decoded Value": [
                                "U",
                                "UNK",
                                "Unknown"
                            ]
                        },
                        {
                            "NCI Term Code": "C49488",
                            "Term": "Y",
                            "Decoded Value": [
                                "Yes"
                            ]
                        }
                    ]
                }
            ]
        },
        {
            "Dataset": "LB",
            "Variable": "LBFAST",
            "CodeList": [
                {
                    "NCI Codelist Code": "C66742",
                    "Name": "No Yes Response",
                    "Short Name": "NY",
                    "Terms": [
                        {
                            "NCI Term Code": "C49487",
                            "Term": "N",
                            "Decoded Value": [
                                "No"
                            ]
                        },
                        {
                            "NCI Term Code": "C49488",
                            "Term": "Y",
                            "Decoded Value": [
                                "Yes"
                            ]
                        }
                    ]
                }
            ]
        },
        {
            "Dataset": "AE",
